Average_IMU_SPS_Hz,7177.917
IMU_Time_sec,Accel_X_raw,Accel_Y_raw,Accel_Z_raw,Gyro_X_raw,Gyro_Y_raw,Gyro_Z_raw
0.0,42,1691,8071,12,-84,-26
0.00014,26,1720,8058,44,-39,-1
0.000279,-28,1668,8060,56,-109,-83
0.00042,17,1737,8068,19,-58,-1
0.000558,-35,1757,8046,25,-45,18
0.000697,-35,1723,8053,56,-96,-96
0.000836,-30,1657,8063,31,-7,50
0.000975,-12,1724,8039,63,-109,-64
0.001116,20,1738,8049,44,-52,-26
0.001254,-33,1745,8100,-19,-52,-1
0.001393,18,1724,8068,88,-103,-64
0.001533,34,1712,8073,12,-71,12
0.001673,-1,1697,8013,25,-39,-1
0.001811,-7,1681,8088,63,-84,-26
0.001951,6,1676,8097,56,-71,-39
0.00209,-21,1778,8047,37,-90,-32
0.002229,-2,1714,8046,0,-33,56
0.002369,-18,1677,8075,88,-77,-83
0.002508,30,1678,8137,19,-71,6
0.002647,17,1753,8119,69,-52,-20
0.002787,-31,1694,8119,69,-96,-32
0.002926,22,1699,8123,19,-77,-26
0.003065,2,1675,8122,50,-96,-32
0.003206,31,1703,8072,50,-58,-7
0.003344,15,1716,8072,44,-71,-7
0.003483,34,1718,8011,88,-96,-32
0.003622,13,1729,8036,-13,-58,-20
0.003762,5,1710,8059,44,-58,-20
0.003901,-19,1667,8041,75,-77,-13
0.00404,22,1659,8104,12,-77,-58
0.00418,-2,1739,8100,56,-65,12
0.004319,14,1681,8061,56,-84,-32
0.004458,33,1725,8045,12,-45,-20
0.004598,22,1734,8101,69,-90,-13
0.004737,3,1749,8127,37,-52,-39
0.004876,5,1739,8080,19,-71,-7
0.005016,12,1708,8067,63,-96,-45
0.005155,-24,1715,8062,-13,-45,-1
0.005294,13,1711,8148,107,-71,-20
0.005434,16,1654,8149,25,-90,-39
0.005573,66,1708,8157,19,-77,12
0.005712,62,1791,8104,31,-39,-26
0.005852,48,1731,8074,81,-90,-26
0.005991,23,1703,8076,12,-58,-51
0.00613,14,1721,8094,56,-65,12
0.006269,22,1736,8057,63,-109,-58
0.006409,-7,1652,8078,31,-45,18
0.006548,16,1653,8086,56,-65,-45
0.006687,91,1725,8104,37,-103,-7
0.006827,76,1702,8134,6,-39,-1
0.006966,34,1741,8126,100,-90,-83
0.007105,48,1740,8087,12,-52,37
0.007245,64,1708,8102,44,-90,-58
0.007384,39,1738,8092,44,-71,-13
0.007523,-7,1721,8069,31,-71,-1
0.007663,43,1733,8044,81,-65,-32
0.007802,42,1725,8086,37,-103,-32
0.007944,29,1760,8077,37,-45,-13
0.008081,43,1678,8083,25,-52,-39
0.00822,42,1709,8038,37,-103,-1
0.00836,41,1750,8034,50,-45,-20
0.008499,-2,1706,8092,56,-96,-45
0.008638,-10,1743,8075,25,-52,12
0.008777,11,1734,8062,75,-90,-58
0.008916,-5,1741,8100,12,-52,12
0.009056,15,1734,8109,56,-65,-20
0.009195,22,1672,8125,81,-109,-64
0.009334,16,1673,8106,-32,-20,37
0.009474,23,1694,8038,132,-122,-77
0.009613,13,1689,8061,0,-45,12
0.009752,13,1747,8108,75,-77,-45
0.009892,44,1686,8092,63,-71,-26
0.010031,56,1716,8085,19,-84,-7
0.010177,36,1692,8099,31,-65,-58
0.01031,37,1680,8056,69,-52,31
0.010449,14,1720,8071,12,-77,-26
0.01059,12,1706,8154,63,-90,-58
0.010728,55,1692,8136,63,-33,18
0.010867,14,1699,8104,25,-77,-45
0.011006,-3,1763,8098,19,-71,12
0.011146,-9,1709,8149,75,-109,-26
0.011285,40,1730,8106,69,-77,-64
0.011424,23,1708,8124,19,-58,31
0.011563,50,1738,8067,69,-65,-83
0.011703,-7,1737,8093,25,-90,6
0.011842,-28,1741,8069,31,-33,-1
0.011981,13,1777,8061,63,-109,-51
0.012121,-35,1700,8080,19,-77,-26
0.01226,2,1727,8092,37,-45,-13
0.012399,21,1675,8134,44,-84,6
0.012539,8,1671,8110,56,-71,-51
0.012678,-10,1652,8060,6,-52,-32
0.012819,39,1715,8043,50,-71,-7
0.012958,24,1735,8099,75,-84,-32
0.013096,-3,1695,8089,25,-77,-39
0.013236,-7,1681,8100,12,-58,12
0.013375,-2,1694,8068,75,-71,-32
0.013515,48,1728,8091,37,-65,-32
0.013653,36,1714,8065,12,-58,-39
0.013793,21,1714,8039,63,-52,25
0.013932,26,1718,8062,25,-96,-26
0.014071,22,1700,8126,63,-65,-45
0.014211,-31,1688,8118,37,-45,-7
0.014351,15,1675,8053,12,-65,-13
0.014489,-7,1722,8017,37,-71,-20
0.014628,34,1721,8061,37,-90,-39
0.014768,34,1732,8035,63,-52,-1
0.014907,28,1679,8049,25,-84,-26
0.015047,12,1667,8134,50,-52,-20
0.015186,35,1714,8053,6,-84,-7
0.015325,36,1756,8078,81,-65,-32
0.015466,31,1724,8058,19,-71,-7
0.015604,11,1700,8058,50,-45,-32
0.015743,18,1719,8052,44,-77,-45
0.015882,22,1704,8056,69,-71,-7
0.016022,19,1719,8055,-6,-33,25
0.016161,-17,1727,8056,81,-128,-64
0.0163,48,1720,8126,0,-33,-7
0.016441,-11,1750,8060,75,-96,-51
0.016579,37,1715,8032,56,-65,18
0.016718,40,1729,8029,44,-58,-39
0.016858,17,1612,8072,37,-65,-1
0.016997,41,1668,8090,37,-71,-39
0.017136,54,1642,8019,19,-58,-7
0.017276,-3,1709,8034,56,-103,-26
0.017415,-29,1732,8063,31,-58,-20
0.017554,37,1748,8093,50,-71,-1
0.017694,42,1740,8044,69,-77,-45
0.017833,1,1718,8029,50,-77,-13
0.017972,-55,1766,8036,6,-52,-1
0.018112,30,1758,8039,69,-71,-26
0.018251,3,1738,8046,50,-96,-7
0.01839,-57,1701,8140,0,-65,-26
0.018529,49,1696,8015,88,-58,-13
0.018669,-8,1726,8060,56,-135,-39
0.018808,-14,1712,8065,31,-39,-39
0.018947,-6,1707,8045,25,-90,18
0.019087,7,1719,8071,81,-65,-45
0.019226,-34,1709,8028,12,-77,-26
0.019365,-10,1739,8034,63,-84,-20
0.019504,-24,1676,8029,25,-65,-45
0.019644,14,1641,8093,44,-71,-7
0.019784,19,1666,8070,-6,-77,18
0.019922,19,1670,8093,107,-71,-70
0.020062,34,1733,8114,6,-58,18
0.020201,40,1761,8077,31,-84,-51
0.02034,65,1755,8065,69,-71,-7
0.02048,53,1716,8078,19,-90,-20
0.020619,22,1737,8048,25,-52,-13
0.020758,2,1742,8099,69,-65,-1
0.020898,61,1682,8107,12,-84,-20
0.021037,39,1734,8085,75,-65,-70
0.021181,18,1730,8048,19,-65,43
0.021316,-20,1735,8110,56,-90,-58
0.021455,-21,1719,8084,37,-52,-32
0.021596,-8,1697,8055,25,-90,-1
0.021734,15,1681,8042,37,-52,-7
0.021873,59,1688,8068,113,-96,-39
0.022015,16,1741,8095,0,-52,-45
0.022152,-5,1667,8136,44,-39,50
0.022291,20,1699,8148,63,-109,-96
0.02243,36,1730,8094,63,-45,6
0.022569,-4,1671,8125,-13,-77,-13
0.022709,38,1696,8096,69,-65,-20
0.022849,43,1690,8095,37,-84,-39
0.022987,58,1689,8008,19,-77,-7
0.023127,21,1739,8093,63,-71,-32
0.023267,-3,1755,8133,31,-77,-39
0.023405,13,1723,8087,19,-26,25
0.023545,31,1707,8111,44,-77,-45
0.023684,18,1716,8085,69,-96,-32
0.023823,15,1714,8067,-6,-33,6
0.023963,-38,1698,8068,81,-77,-26
0.024102,-27,1713,8072,31,-77,-20
0.024241,-21,1648,8116,56,-84,-32
0.024382,-35,1696,8029,19,-52,-32
0.02452,-42,1681,8041,44,-71,-32
0.024659,38,1689,8028,50,-58,-20
0.024799,32,1661,8067,0,-71,-1
0.024938,-20,1688,8096,37,-33,-13
0.025077,32,1770,8101,88,-109,-58
0.025216,35,1689,8057,6,-39,18
0.025358,37,1676,8079,69,-71,-20
0.025495,28,1673,8118,37,-84,-70
0.025635,44,1672,8017,31,-33,6
0.025774,58,1663,8041,56,-77,6
0.025917,-6,1693,8091,6,-45,-64
0.026053,-1,1706,8059,75,-71,6
0.026192,-16,1718,8096,44,-71,-58
0.026331,43,1684,8053,44,-58,-13
0.026471,41,1690,8053,37,-65,6
0.02661,27,1699,8097,56,-109,-70
0.026749,17,1696,8141,50,-45,12
0.026888,4,1696,8122,44,-77,-26
0.027028,32,1700,8093,56,-71,-7
0.027167,9,1698,8058,50,-103,-26
0.027306,56,1723,8102,31,-58,-51
0.027446,16,1709,8067,63,-52,25
0.027585,43,1657,8047,37,-116,-45
0.027724,15,1686,8059,31,-26,-26
0.027864,54,1704,8043,31,-77,-7
0.028003,48,1657,8103,63,-71,-51
0.028142,20,1726,8035,31,-45,25
0.028282,-17,1697,8071,75,-77,-58
0.028421,-2,1706,8107,-13,-77,12
0.02856,17,1723,8135,88,-103,-26
0.0287,62,1746,8070,25,-52,-39
0.028839,31,1714,8074,44,-52,12
0.028978,61,1680,8063,44,-96,-45
0.029118,13,1706,8120,50,-96,-13
0.029257,20,1732,8090,50,-26,-20
0.029396,-34,1702,8091,19,-96,-20
0.029535,55,1745,8064,50,-71,-13
0.029675,58,1696,8135,44,-45,-39
0.029814,0,1716,8087,88,-109,-7
0.029955,0,1700,8043,19,-52,-51
0.030093,-29,1740,8101,56,-90,6
0.030232,40,1747,8093,37,-52,-26
0.030371,52,1741,8083,37,-71,-7
0.03051,48,1704,8094,56,-52,-32
0.03065,12,1726,8119,31,-84,-1
0.030789,-18,1673,8103,63,-84,-45
0.030928,-6,1707,8040,50,-84,-26
0.031068,24,1725,8026,12,-20,25
0.031207,-47,1701,8113,50,-90,-45
0.031346,10,1769,8069,63,-90,-45
0.031486,-12,1721,8093,-6,-13,-13
0.031625,19,1704,8116,81,-103,-26
0.031764,-23,1696,8089,37,-58,-1
0.031905,8,1742,8118,75,-90,-45
0.032044,51,1690,8110,25,-39,-20
0.032182,-21,1708,8078,0,-77,6
0.032323,-21,1676,8109,113,-103,-64
0.032461,22,1703,8098,6,-7,6
0.0326,52,1769,8100,56,-109,-39
0.03274,41,1699,8096,37,-84,-39
0.032879,63,1754,8088,25,-58,25
0.033018,1,1722,8024,69,-77,-64
0.033158,30,1689,8032,44,-77,-20
0.033298,16,1713,8089,25,-65,-20
0.033436,14,1662,8110,19,-52,-7
0.033575,8,1689,8074,69,-90,-51
0.033715,-61,1741,8089,0,-39,-7
0.033855,29,1666,8062,81,-109,-20
0.033994,9,1655,8091,0,-45,-20
0.034133,31,1704,8056,37,-71,-7
0.034272,4,1737,8091,88,-84,-58
0.034411,-1,1722,8111,12,-71,-1
0.034551,18,1738,8095,37,-39,-13
0.03469,-45,1702,8106,37,-103,-51
0.034829,-43,1675,8072,63,-103,-13
0.034969,35,1717,8069,56,-33,-7
0.035108,30,1716,8100,25,-77,-26
0.035247,68,1748,8089,75,-103,-20
0.035387,79,1663,8115,44,-58,-32
0.035526,19,1706,8100,31,-58,-7
0.035665,17,1735,8118,25,-58,-7
0.035805,-35,1688,8106,75,-103,-70
0.035944,-5,1690,8074,44,-52,31
0.036083,30,1726,8125,50,-90,-51
0.036223,6,1732,8193,-13,-20,18
0.036365,6,1677,8112,132,-154,-89
0.036501,-11,1685,8076,-50,-26,31
0.036641,8,1668,8065,113,-109,-58
0.03678,24,1668,8065,25,-65,25
0.036921,20,1747,8054,50,-84,-26
0.037058,-28,1682,8092,37,-33,-32
0.037198,-15,1691,8143,25,-65,-32
0.037337,5,1738,8090,50,-103,6
0.037476,-18,1751,8051,37,-65,-39
0.037617,54,1753,8094,50,-77,-20
0.037755,26,1710,8107,25,-58,-45
0.037895,-39,1726,8085,63,-84,6
0.038034,14,1745,8120,37,-52,-51
0.038174,-8,1681,8089,56,-84,-7
0.038312,-15,1678,8084,12,-71,-7
0.038452,-20,1689,8058,75,-90,-45
0.038591,-18,1687,8102,37,-84,12
0.03873,11,1655,8058,37,-58,-51
0.03887,-15,1700,8100,19,-65,-20
0.039009,56,1688,8121,75,-84,-7
0.039148,31,1677,8061,19,-71,-20
0.039288,40,1717,8122,50,-58,-39
0.039427,19,1732,8102,88,-96,-13
0.039566,12,1694,8077,12,-96,-20
0.039705,37,1700,8050,31,-52,-1
0.039845,24,1745,8077,50,-52,-32
0.039984,2,1703,8126,-13,-58,12
0.040124,12,1683,8104,88,-90,-51
0.040263,43,1703,8097,31,-84,-39
0.040403,-19,1683,8116,31,-45,18
0.040541,28,1707,8164,25,-116,-51
0.04068,-21,1722,8065,50,-77,12
0.04082,21,1710,8088,31,-39,-39
0.040959,29,1705,8041,44,-116,-51
0.041098,24,1692,8064,44,-58,-1
0.041238,-2,1701,8123,19,-77,12
0.041377,30,1728,8097,107,-77,-77
0.041517,26,1735,8054,-13,-71,12
0.041656,45,1731,8063,56,-90,-51
0.041796,3,1689,8086,12,-52,18
0.041936,53,1748,8058,81,-84,-58
0.042075,42,1748,8106,37,-65,-1
0.042213,7,1706,8152,25,-39,-20
0.042353,-35,1693,8081,81,-135,-32
0.042492,8,1760,8067,6,-7,12
0.042631,28,1756,8073,100,-90,-45
0.042772,-8,1724,8127,-25,-65,6
0.042911,-28,1688,8080,88,-77,-39
0.043049,-16,1745,8077,25,-45,-7
0.043188,12,1688,8057,69,-90,-32
0.043329,64,1724,8086,31,-52,-20
0.043467,31,1716,8047,50,-45,-13
0.043606,-2,1664,8044,19,-96,-26
0.043746,-23,1674,8086,56,-84,-26
0.043884,23,1747,8088,63,-45,-13
0.044024,35,1716,8089,37,-45,-20
0.044164,-39,1674,8106,31,-90,-32
0.044303,29,1640,8110,56,-65,-26
0.044442,18,1676,8108,69,-77,-20
0.044581,72,1762,8037,6,-33,6
0.044721,40,1725,8086,37,-103,-39
0.04486,41,1716,8082,88,-71,-32
0.045,55,1731,8069,-6,-52,-20
0.045139,12,1741,8072,94,-84,-1
0.045278,16,1694,8072,25,-33,-26
0.045418,19,1701,8103,56,-84,-20
0.045557,47,1742,8072,31,-96,-20
0.045696,23,1689,8031,50,-45,-1
0.045835,-1,1682,8073,63,-109,-51
0.045975,34,1710,8078,12,-13,6
0.046114,-57,1702,8131,56,-122,-26
0.046253,-5,1668,8074,19,-45,-13
0.046393,-2,1726,8072,56,-90,-39
0.046532,-46,1715,8071,50,-58,-7
0.046671,-9,1726,8100,56,-96,-32
0.046811,14,1699,8069,12,-52,-1
0.04695,17,1710,8067,44,-77,-13
0.047089,86,1700,8120,69,-84,-32
0.047229,5,1694,8153,44,-58,-26
0.047368,19,1722,8066,25,-71,12
0.047507,62,1670,8065,63,-77,-70
0.047646,59,1642,8063,25,-58,-20
0.047786,3,1716,8084,50,-71,-13
0.047925,-9,1701,8081,50,-77,18
0.048064,31,1692,8143,31,-52,-70
0.048204,8,1709,8087,75,-103,6
0.048343,9,1736,8079,37,-65,-39
0.048482,22,1727,8070,31,-58,-26
0.048622,18,1760,8056,12,-58,12
0.048761,38,1733,8070,75,-90,-39
0.048902,26,1710,8106,12,-58,12
0.04904,13,1714,8083,125,-116,-83
0.049179,6,1681,8090,-38,-33,31
0.049319,13,1714,8098,94,-90,-39
0.049458,13,1723,8050,-13,-52,-32
0.049598,82,1704,8094,44,-52,-26
0.049736,28,1713,8063,69,-58,-13
0.049878,1,1747,8055,12,-96,-13
0.050015,-12,1742,8020,44,-45,-13
0.050159,2,1715,8083,56,-58,-51
0.050293,46,1724,8063,50,-71,6
0.050434,25,1713,8077,44,-65,-32
0.050572,-39,1677,8100,-13,-58,-20
0.050712,22,1707,8048,100,-96,-20
0.050851,34,1719,8057,44,-71,-45
0.05099,-4,1746,8044,31,-90,-1
0.051129,13,1713,8059,38,-77,-26
0.051268,-6,1746,8133,31,-58,-26
0.051408,-38,1717,8083,44,-71,-7
0.051547,3,1732,8074,81,-84,-51
0.051686,42,1732,8092,6,-45,6
0.051827,33,1760,8042,44,-71,-26
0.051965,14,1760,8063,38,-84,-26
0.052105,-12,1735,8085,69,-84,-13
0.052245,-52,1681,8040,38,-77,-45
0.052383,50,1733,8056,6,-45,-7
0.052522,27,1730,8088,25,-122,-45
0.052662,-20,1675,8125,94,-39,-26
0.052807,-36,1688,8078,6,-39,18
0.05294,-1,1717,8046,94,-128,-77
0.053081,-34,1701,8056,25,-13,-1
0.053219,-4,1718,8151,44,-84,-26
0.053358,0,1717,8079,31,-52,18
0.053498,30,1654,8069,50,-84,-77
0.053639,20,1691,8056,44,-71,25
0.053776,27,1723,8045,50,-71,-51
0.053916,-16,1715,8074,19,-58,-1
0.054055,38,1706,8069,69,-77,-39
0.054194,16,1728,8069,44,-96,-26
0.054334,12,1704,8124,12,-26,-1
0.054473,24,1681,8071,69,-103,-51
0.054612,7,1715,8111,25,-90,-7
0.054753,11,1720,8065,56,-71,-7
0.054891,-41,1655,8116,19,-45,-20
0.05503,20,1686,8098,75,-103,-20
0.055171,37,1743,8080,12,-45,-32
0.055309,55,1706,8069,31,-58,-7
0.055448,-2,1683,8114,56,-52,-39
0.055589,-14,1645,8112,12,-71,-20
0.055727,10,1709,8034,25,-116,-39
0.055866,19,1739,8052,63,-65,12
0.056007,44,1744,8065,75,-52,-51
0.056146,35,1727,8092,38,-96,-20
0.056284,65,1695,8103,6,-26,-7
0.056424,68,1698,8094,94,-103,-39
0.056563,15,1710,8087,-32,-26,25
0.056702,17,1664,8071,100,-116,-64
0.056841,3,1729,8103,44,-33,-1
0.056981,-4,1686,8062,38,-109,-32
0.057121,3,1690,8047,50,-52,6
0.057259,-41,1686,8085,25,-45,-26
0.057399,-15,1694,8094,81,-128,-39
0.057538,0,1752,8056,12,-52,-26
0.057677,-39,1752,8098,69,-58,18
0.057817,-25,1753,8037,31,-77,-45
0.057956,2,1665,8074,38,-58,-20
0.058095,-3,1779,8120,31,-84,-1
0.058235,9,1741,8117,63,-71,-26
0.058374,60,1650,8043,38,-58,-32
0.058513,36,1727,8064,12,-71,6
0.058653,58,1764,8051,75,-84,-39
0.058792,17,1715,8059,50,-96,-39
0.058931,-6,1709,8086,38,-39,6
0.05907,-19,1654,8124,69,-103,-51
0.05921,37,1732,8123,19,-52,12
0.059349,53,1715,8176,81,-109,-64
0.059488,9,1725,8049,12,-33,6
0.059628,-27,1716,8083,50,-71,-13
0.059767,25,1703,8076,94,-77,-13
0.059906,4,1719,8061,6,-71,-39
0.060046,-22,1713,8085,63,-84,-26
0.060186,-32,1681,8094,12,-52,6
0.060324,44,1693,8090,44,-96,-51
0.060463,54,1729,8064,75,-13,12
0.060603,6,1719,8056,6,-128,-58
0.060742,15,1784,8091,81,-65,12
0.060881,40,1751,8093,25,-65,-20
0.061021,0,1712,8073,44,-77,-39
0.06116,13,1690,8052,44,-71,-1
0.061299,14,1654,8084,44,-71,-20
0.061439,-9,1638,8113,44,-52,-26
0.061578,42,1734,8100,50,-122,-20
0.061719,48,1760,8069,-6,-20,-1
0.06186,44,1671,8139,75,-84,-58
0.061996,26,1696,8124,44,-103,12
0.062135,8,1745,8056,44,-77,-39
0.062276,10,1711,8018,6,-71,-7
0.062416,-20,1659,8095,94,-65,-58
0.062553,27,1732,8064,19,-84,6
0.062693,24,1717,8070,50,-39,-26
0.062832,-24,1713,8104,31,-71,-1
0.062971,18,1733,8076,56,-39,-51
0.063112,42,1746,8082,12,-77,-1
0.06325,29,1694,8100,100,-58,-45
0.063389,12,1767,8102,12,-122,-20
0.063529,63,1738,8066,12,-7,-1
0.063668,-26,1720,8078,31,-77,-45
0.063807,53,1730,8099,56,-77,-26
0.063946,33,1728,8118,63,-65,-13
0.064086,-18,1728,8108,25,-77,-7
0.064225,54,1740,8096,81,-71,-64
0.064365,42,1732,8062,6,-58,18
0.064504,38,1712,8022,56,-71,-20
0.064643,12,1718,8095,25,-103,-13
0.064783,-5,1708,8157,69,-65,-51
0.064922,31,1747,8060,25,-45,6
0.065063,13,1710,8095,50,-96,-26
0.0652,30,1686,8108,50,-45,-7
0.065339,-22,1715,8148,31,-71,-32
0.065479,11,1739,8092,19,-71,-20
0.065619,-16,1716,8093,63,-65,-26
0.065758,1,1704,8106,69,-58,-13
0.065897,-14,1720,8087,6,-77,6
0.066037,-13,1694,8096,81,-96,-39
0.066176,45,1768,8064,-19,-26,-7
0.066315,-34,1724,8078,75,-84,-39
0.066454,-53,1660,8116,50,-90,-26
0.066594,37,1676,8044,12,-71,-13
0.066733,44,1674,8081,69,-52,-20
0.066872,-46,1708,8031,6,-77,-39
0.067011,-16,1706,8043,75,-84,6
0.067151,-13,1741,8089,38,-77,-51
0.06729,-10,1781,8066,12,-65,6
0.06743,-12,1701,8072,69,-71,-51
0.067569,1,1694,8100,44,-77,-20
0.067708,23,1733,8106,56,-71,-7
0.067848,-21,1735,8078,31,-71,-39
0.067987,-8,1711,8076,63,-84,-7
0.068126,-7,1728,8073,19,-58,-7
0.068265,-21,1688,8077,88,-96,-32
0.068405,25,1710,8071,19,-45,-13
0.068544,-29,1699,8102,6,-65,-26
0.068683,-2,1673,8088,81,-84,-45
0.068822,17,1668,8115,25,-71,18
0.068962,0,1740,8090,37,-71,-51
0.069101,4,1726,8084,69,-77,-32
0.069241,31,1734,8029,-6,-58,6
0.06938,11,1674,8011,88,-90,-26
0.069519,21,1703,8066,12,-33,-39
0.069659,13,1698,8088,19,-90,6
0.069798,26,1733,8104,63,-58,-1
0.069939,-21,1738,8089,44,-96,-64
0.070076,8,1732,8031,63,-71,-13
0.070216,17,1717,8088,31,-45,18
0.070355,14,1722,8104,63,-109,-58
0.070494,14,1751,8168,50,-33,-20
0.070634,18,1741,8118,25,-96,-32
0.070773,-7,1749,8136,31,-52,37
0.070912,-28,1689,8070,69,-109,-64
0.071051,26,1731,8093,37,-84,-13
0.071191,42,1692,8028,75,-58,-39
0.07133,14,1679,8060,-6,-84,12
0.071469,-4,1704,8048,37,-45,-20
0.071609,33,1676,8050,100,-84,-45
0.071748,49,1728,8107,37,-65,12
0.071887,-26,1698,8088,31,-90,-58
0.072028,13,1756,8027,56,-26,25
0.072166,71,1726,8070,75,-116,-51
0.072307,-19,1674,8126,0,-52,18
0.072445,3,1665,8116,81,-84,-83
0.072584,15,1696,8070,31,-52,43
0.072723,13,1728,8072,31,-58,-51
0.072863,66,1697,8043,69,-109,-7
0.073002,14,1695,8030,6,-33,-39
0.073141,4,1707,8055,69,-84,-7
0.073281,42,1635,8100,19,-84,-13
0.07342,19,1659,8083,69,-45,-39
0.073559,-8,1700,8109,6,-71,-13
0.0737,23,1720,8099,75,-90,-32
0.073838,18,1677,8075,31,-58,-13
0.073977,21,1705,8105,44,-58,-26
0.074117,-22,1683,8095,44,-103,6
0.074256,30,1704,8122,37,-90,-51
0.074395,0,1718,8105,12,-39,6
0.074535,-9,1733,8073,69,-96,-45
0.074674,3,1667,8081,56,-52,18
0.074813,-4,1719,8112,31,-65,-51
0.074953,8,1717,8054,50,-90,25
0.075092,13,1676,8046,25,-45,-64
0.075231,-6,1639,8046,88,-96,-45
0.07537,7,1694,8052,31,-71,6
0.07551,17,1743,8077,31,-77,-39
0.075649,23,1693,8092,50,-90,-1
0.075788,29,1671,8134,19,-33,-39
0.075928,-3,1715,8099,75,-84,-39
0.076067,14,1713,8122,25,-84,6
0.076206,29,1734,8146,31,-65,-26
0.076346,32,1755,8097,107,-71,-32
0.076485,32,1736,8024,-13,-52,6
0.076624,0,1700,8064,81,-116,-51
0.076764,33,1694,8106,-13,-52,-13
0.076903,37,1746,8078,69,-90,-1
0.077042,27,1720,8091,69,-52,-32
0.077182,57,1717,8070,-6,-84,-26
0.077321,6,1694,8085,81,-84,-45
0.07746,29,1697,8053,12,-33,18
0.0776,16,1737,8044,37,-90,-45
0.077739,55,1735,8060,75,-109,-32
0.077878,-9,1741,8073,25,-71,-1
0.078017,14,1644,8086,31,-20,-26
0.078157,12,1691,8054,69,-135,-51
0.078296,32,1742,8076,25,-20,18
0.078435,-30,1704,8092,69,-109,-45
0.078575,52,1716,8107,31,-39,-32
0.078714,-1,1702,8092,44,-96,-20
0.078853,16,1704,8050,37,-77,-7
0.078993,24,1705,8113,50,-52,-26
0.079132,36,1673,8111,44,-96,6
0.079271,21,1693,8058,50,-58,-58
0.079411,12,1729,8051,6,-77,-1
0.07955,-14,1749,8053,75,-65,-45
0.079689,43,1710,8044,63,-116,-26
0.079828,32,1697,8017,6,-13,-13
0.079969,25,1654,8042,63,-103,-13
0.080107,56,1709,8054,81,-65,-39
0.080247,8,1777,8087,6,-90,-13
0.080387,8,1758,8090,63,-33,-51
0.080525,4,1789,8096,25,-109,25
0.080664,-16,1712,8091,75,-33,-51
0.080803,0,1683,8069,-13,-65,-1
0.080943,25,1639,8129,50,-84,-20
0.081082,60,1694,8059,56,-77,-39
0.081221,26,1752,8072,37,-52,-1
0.081365,-22,1720,8112,19,-71,-32
0.0815,-6,1754,8095,75,-45,-1
0.081639,58,1771,8063,6,-103,-45
0.081779,3,1688,8075,81,-20,-20
0.081918,3,1718,8094,56,-122,-26
0.082059,59,1751,8070,25,-65,-7
0.082198,-33,1754,8070,6,-65,-7
0.082336,-20,1680,8072,81,-77,-51
0.082477,30,1676,8092,69,-90,-39
0.082615,16,1690,8120,12,-52,6
0.082754,72,1748,8119,37,-65,-20
0.082893,43,1730,8117,44,-58,-58
0.083033,0,1720,8135,37,-84,-1
0.083173,40,1663,8059,25,-65,-1
0.083311,29,1708,8108,69,-96,-51
0.083451,53,1682,8146,25,-52,-20
0.08359,40,1733,8114,50,-52,-7
0.083729,57,1714,8109,0,-90,-32
0.083869,-3,1688,8099,75,-71,-20
0.084008,-8,1726,8055,31,-65,-26
0.084147,-13,1675,8049,44,-71,-13
0.084287,56,1669,8093,31,-71,-20
0.084426,24,1726,8073,50,-77,-20
0.084566,36,1748,8051,25,-71,-1
0.084705,14,1704,8113,56,-84,-51
0.084844,-15,1689,8142,44,-33,12
0.084983,-51,1753,8108,56,-141,-39
0.085122,-54,1706,8093,25,-33,-32
0.085262,27,1717,8106,37,-84,18
0.085401,21,1710,8094,88,-77,-64
0.085541,-44,1700,8087,19,-39,-1
0.08568,-4,1697,8057,50,-103,-26
0.085819,-64,1700,8108,63,-65,-58
0.085958,-25,1667,8085,6,-52,43
0.086098,-46,1699,8113,69,-58,-51
0.086237,15,1745,8101,37,-90,6
0.086377,-7,1751,8112,63,-116,-77
0.086515,-15,1743,8116,25,-20,25
0.086655,-38,1701,8057,31,-71,-13
0.086794,3,1753,8057,31,-109,-51
0.086934,38,1657,8075,63,-58,-7
0.087073,8,1695,8016,50,-77,-26
0.087212,-14,1720,8062,6,-45,-32
0.087352,26,1733,8079,56,-90,18
0.087491,13,1734,8091,56,-77,-51
0.08763,34,1673,8113,31,-45,-7
0.08777,41,1728,8125,38,-90,-45
0.087909,60,1738,8108,69,-39,-1
0.088048,1,1707,8095,6,-65,-26
0.088188,-41,1703,8060,50,-103,-51
0.088327,0,1730,8093,44,-52,12
0.088466,10,1757,8081,50,-103,-58
0.088605,0,1746,8109,44,-39,-13
0.088745,18,1696,8109,38,-109,-45
0.088884,35,1730,8094,12,-20,37
0.089023,4,1695,8034,94,-116,-39
0.089163,-59,1680,8065,25,-45,-20
0.089308,-1,1657,8007,-13,-65,-39
0.089441,34,1707,8018,88,-65,12
0.089581,48,1694,8106,50,-128,-45
0.08972,17,1708,8107,38,-33,-39
0.089861,30,1722,8116,25,-39,6
0.089998,-10,1734,8123,56,-122,-45
0.090138,-18,1688,8094,44,-45,-26
0.090277,7,1719,8065,38,-58,-7
0.090418,21,1692,8075,63,-84,-32
0.090556,-5,1691,8077,25,-52,-1
0.090695,60,1715,8085,63,-84,-26
0.090834,27,1685,8058,12,-84,-51
0.090974,29,1750,8097,94,-77,-7
0.091113,-20,1755,8062,0,-71,-20
0.091252,-15,1696,8057,100,-71,-26
0.091392,48,1709,8072,-6,-77,-20
0.091532,60,1700,8074,100,-84,-39
0.09167,40,1741,8034,-13,-71,12
0.09181,15,1702,8067,56,-45,-32
0.09195,35,1704,8071,19,-65,-26
0.092089,35,1721,8103,88,-96,-20
0.092227,53,1739,8086,-6,-52,-7
0.092371,56,1737,8122,75,-45,-32
0.092506,-11,1671,8055,12,-77,-39
0.092646,-17,1757,8046,38,-52,-13
0.092785,38,1697,8112,44,-96,-20
0.092924,-12,1695,8060,19,-33,-20
0.093063,19,1733,8048,75,-90,-20
0.093203,13,1762,8092,19,-65,6
0.093342,69,1720,8076,44,-103,-45
0.093481,71,1695,8094,12,-58,-39
0.093621,23,1739,8103,81,-84,-1
0.09376,32,1745,8054,0,-45,-1
0.093899,72,1709,8066,81,-96,-70
0.094039,-4,1706,8088,38,-65,6
0.094178,12,1707,8101,56,-65,-39
0.094317,-1,1696,8071,56,-71,-1
0.094457,-8,1722,8073,31,-90,-45
0.094596,27,1730,8062,44,-52,12
0.094735,0,1740,8023,44,-96,-26
0.094875,12,1720,8042,75,-71,-45
0.095014,-14,1762,8019,12,-52,6
0.095153,53,1705,8103,38,-52,6
0.095293,18,1681,8154,69,-116,-64
0.095432,72,1716,8109,19,-39,31
0.095571,27,1707,8086,88,-58,-64
0.09571,-17,1704,8103,0,-109,-20
0.09585,1,1709,8061,69,-39,-1
0.095989,-14,1717,8096,31,-90,-45
0.096128,7,1739,8110,50,-39,6
0.096268,-14,1699,8082,50,-103,-32
0.096407,4,1713,8054,44,-52,-1
0.096546,14,1690,8074,31,-96,-45
0.096686,65,1731,8030,63,-45,-7
0.096825,53,1694,8095,19,-52,-7
0.096964,-32,1716,8117,63,-103,-39
0.097104,22,1708,8019,38,-45,-7
0.097243,40,1706,8051,25,-103,-45
0.097382,10,1693,8095,31,-58,-7
0.097522,-24,1749,8044,44,-71,-1
0.097661,-38,1681,8082,69,-84,-58
0.0978,12,1733,8132,6,-58,6
0.09794,9,1738,8099,75,-65,-26
0.098079,20,1728,8073,25,-65,-32
0.098218,-23,1738,8152,19,-39,-7
0.098357,-15,1699,8056,107,-122,-32
0.098497,22,1712,8046,19,-58,-26
0.098636,12,1706,8071,31,-45,-1
0.098775,-32,1738,8066,31,-84,-32
0.098915,58,1690,8084,63,-45,-13
0.099054,-3,1719,8080,31,-109,-26
0.099193,-4,1697,8086,44,-58,-39
0.099333,29,1659,8072,69,-77,-32
0.099472,38,1712,8066,-13,-33,25
0.099611,-1,1692,8109,107,-128,-83
0.099751,-5,1654,8143,-6,-33,43
0.09989,18,1695,7998,38,-71,-51
0.100029,61,1720,8081,69,-96,-51
0.100169,-28,1691,8066,44,-39,25
0.100308,-12,1725,8153,12,-90,-45
0.100447,-14,1727,8068,38,-65,12
0.100587,31,1704,8089,44,-71,-26
0.100726,62,1709,8059,69,-52,-51
0.100865,39,1710,8058,6,-96,25
0.101004,29,1749,8019,75,-77,-77
0.101144,45,1733,8085,19,-52,31
0.101283,-16,1697,8146,50,-84,-32
0.101422,-2,1695,8014,38,-52,-58
0.101562,-5,1673,8095,56,-103,-7
0.101701,19,1728,8087,-6,-52,6
0.10184,42,1741,8135,94,-84,-77
0.10198,27,1720,8056,12,-45,-7
0.102119,88,1721,8027,38,-77,-7
0.102258,-10,1741,8079,44,-90,-32
0.102398,-17,1701,8083,63,-90,-39
0.102537,30,1692,8090,19,-13,18
0.102676,46,1758,8098,88,-128,-64
0.102816,13,1715,8107,0,-39,6
0.102955,22,1773,8086,75,-77,-26
0.103094,-19,1751,8091,25,-52,-20
0.103234,-4,1722,8111,38,-77,-20
0.103373,22,1724,8106,75,-77,-39
0.103512,36,1760,8079,12,-77,-1
0.103651,-17,1672,8092,44,-39,-13
0.103791,-4,1674,8043,69,-103,-64
0.10393,21,1681,8057,6,-45,6
0.104069,-7,1719,8058,88,-103,-32
0.104209,-41,1705,8057,25,-45,-7
0.104348,16,1694,8069,44,-71,-7
0.104487,-7,1732,8166,50,-20,-32
0.104627,7,1688,8100,75,-116,-26
0.104766,21,1711,8085,-19,-45,-20
0.104905,20,1725,8112,119,-90,-32
0.105045,38,1699,8126,-13,-39,-1
0.105184,60,1711,8143,56,-84,-39
0.105323,17,1730,8094,38,-90,-45
0.105463,25,1695,8074,25,-33,43
0.105602,9,1714,8080,56,-122,-51
0.105741,31,1737,8027,50,-58,-32
0.105881,6,1713,8111,25,-103,-13
0.10602,9,1721,8100,25,-52,-20
0.106159,28,1712,8070,56,-84,-13
0.106302,43,1708,8110,44,-33,-51
0.106438,-16,1724,8108,38,-103,6
0.106577,-6,1696,8110,56,-71,-39
0.106716,62,1697,8127,31,-58,-1
0.106856,48,1735,8118,50,-71,-26
0.106995,-12,1710,8066,69,-77,-32
0.107134,27,1652,8054,6,-52,18
0.107274,-10,1680,8040,56,-77,-26
0.107413,21,1709,8077,81,-103,-58
0.107552,8,1702,8081,6,-39,-7
0.107692,61,1670,8146,56,-77,-26
0.107831,40,1733,8106,50,-84,-45
0.10797,-54,1718,8084,31,-58,-13
0.10811,32,1741,8086,56,-71,-7
0.108249,43,1722,8066,50,-84,-51
0.108388,23,1767,8093,12,-45,-7
0.108528,52,1690,8076,75,-90,-20
0.108667,15,1720,8079,19,-65,-7
0.108806,57,1693,8030,50,-52,-32
0.108945,25,1717,8074,44,-71,-1
0.109085,31,1668,8063,44,-84,-45
0.109224,16,1675,8111,56,-96,-26
0.109365,25,1716,8063,31,-71,-13
0.109503,46,1745,8060,100,-58,-13
0.109642,24,1722,8090,-50,-84,-13
0.109781,-32,1734,8118,94,-45,-39
0.109921,-40,1700,8088,31,-96,-13
0.11006,12,1683,8105,44,-90,-32
0.110199,39,1714,8081,38,-65,-26
0.110339,-6,1701,8088,56,-77,-32
0.110478,18,1676,8108,25,-77,-1
0.110617,37,1684,8108,56,-90,-58
0.110757,34,1729,8102,63,-52,18
0.110896,-16,1687,8112,0,-77,-45
0.111035,21,1722,8102,88,-58,-13
0.111175,2,1761,8115,38,-84,6
0.111314,15,1759,8102,31,-58,-32
0.111453,15,1703,8190,63,-65,-32
0.111593,36,1717,8094,44,-65,12
0.111732,-14,1757,8085,56,-71,-39
0.111871,-26,1721,8030,25,-96,-13
0.112014,45,1703,8053,44,-26,-26
0.11215,10,1699,8035,81,-90,-39
0.112289,2,1715,8069,19,-90,-32
0.112428,38,1713,8079,25,-26,25
0.112568,4,1765,8093,81,-84,-32
0.112709,52,1690,8081,25,-77,-58
0.112846,46,1700,8087,12,-52,18
0.112986,11,1753,8006,88,-116,-70
0.113127,55,1746,8069,6,-33,18
0.113264,58,1738,8103,75,-77,-51
0.113403,10,1727,8048,19,-58,-7
0.113543,25,1708,8062,50,-90,-13
0.113684,57,1776,8101,50,-77,-20
0.113822,66,1774,8096,25,-45,-20
0.113963,25,1719,8068,63,-90,-39
0.1141,51,1719,8101,25,-33,-20
0.11424,63,1762,8074,88,-90,-1
0.114379,14,1726,8100,12,-58,-70
0.114518,31,1654,8097,6,-96,31
0.114657,65,1714,8071,75,-33,-51
0.114798,-41,1719,8076,38,-96,-1
0.114936,16,1667,8049,38,-84,-45
0.115075,20,1708,8104,44,-33,-13
0.115216,32,1673,8063,63,-90,-32
0.115356,-17,1672,8022,44,-58,-13
0.115494,16,1662,8063,56,-90,-13
0.115635,11,1686,8113,25,-39,-20
0.115774,6,1725,8097,38,-71,-26
0.115917,1,1703,8093,44,-96,-1
0.116051,-4,1734,8106,94,-52,-51
0.116191,-19,1715,8116,0,-52,18
0.116331,26,1723,8116,94,-84,-64
0.116469,43,1696,8112,12,-96,-1
0.116608,41,1783,8068,31,-13,-39
0.116748,17,1727,8053,63,-116,-32
0.116887,-10,1676,8062,56,-45,31
0.117027,10,1679,8111,44,-58,-64
0.117165,-7,1731,8074,44,-58,6
0.117305,37,1724,8070,56,-96,-51
0.117444,63,1737,8020,25,-45,18
0.117584,20,1687,8078,44,-109,-20
0.117722,21,1648,8040,38,-45,-45
0.117862,55,1722,8122,81,-58,12
0.118001,63,1662,8106,25,-103,-64
0.11814,17,1689,8105,44,-58,-20
0.11828,17,1673,8109,12,-103,6
0.118419,-86,1648,8110,50,-26,-26
0.118558,31,1723,8103,50,-116,-7
0.118697,23,1719,8078,56,-71,-39
0.118837,26,1708,8047,38,-58,12
0.118976,23,1724,8061,44,-77,-51
0.119115,36,1746,8061,50,-65,-7
0.119255,-27,1746,8078,6,-90,-32
0.119394,4,1719,8056,69,-71,25
0.119533,0,1676,8111,56,-77,-77
0.119673,-10,1690,8085,25,-65,31
0.119812,40,1668,8064,19,-71,-39
0.119951,-5,1690,8080,94,-84,6
0.120091,11,1707,8096,-6,-77,-32
0.12023,-10,1670,8036,88,-71,-45
0.120369,-2,1714,8039,19,-90,-1
0.120509,22,1695,8063,31,-52,-20
0.120648,58,1682,8075,63,-71,-7
0.120788,-15,1700,8090,25,-84,-26
0.120927,20,1700,8036,75,-65,-51
0.121067,16,1738,8034,6,-45,-1
0.121208,-14,1687,8077,75,-77,-1
0.121345,19,1723,8079,31,-96,-64
0.121485,-18,1707,8101,69,-33,6
0.121623,-44,1717,8107,19,-77,-20
0.121763,54,1731,8075,81,-65,-51
0.121904,-14,1724,8077,-19,-45,25
0.122041,4,1708,8062,81,-90,-45
0.122181,16,1721,8067,44,-84,-20
0.122322,16,1727,8052,37,-45,-20
0.122459,24,1708,8074,81,-84,-39
0.122599,96,1703,8064,-32,-71,-7
0.122738,27,1694,8014,125,-109,-32
0.122877,-1,1658,8089,0,-39,-7
0.123018,11,1705,8107,69,-77,-45
0.123156,30,1714,8081,37,-52,-1
0.123297,24,1735,8083,44,-122,-51
0.12344,3,1727,8055,44,-1,-1
0.123574,-54,1681,8065,31,-109,-7
0.123715,-12,1743,8102,50,-84,-45
0.123852,4,1729,8053,37,-58,-13
0.123992,13,1689,8102,37,-77,-20
0.124131,-3,1737,8060,75,-45,-7
0.12427,11,1740,8074,-32,-90,-39
0.12441,20,1733,8094,94,-71,6
0.12455,38,1714,8095,12,-65,-39
0.124688,39,1742,8121,69,-52,-26
0.124827,-40,1719,8084,19,-77,-20
0.124967,-16,1745,8034,31,-77,-20
0.125107,-18,1704,8121,69,-65,-1
0.125246,22,1726,8133,-19,-52,-39
0.125385,-1,1728,8125,107,-96,-39
0.125525,44,1678,8041,-25,-7,-7
0.125664,29,1700,8046,63,-128,-26
0.125804,-6,1705,8067,63,-39,-26
0.125942,-16,1688,8132,-6,-65,-32
0.126081,9,1702,8092,56,-77,-7
0.126221,49,1719,8123,37,-90,-1
0.12636,18,1777,8083,12,-71,-26
0.126499,-32,1679,8142,113,-90,-32
0.126639,34,1698,8115,0,-65,-26
0.126778,-35,1696,8044,37,-71,-20
0.126917,40,1729,8068,81,-71,-13
0.127057,56,1728,8036,6,-71,-32
0.127197,-25,1658,8079,37,-45,-20
0.127335,2,1717,8052,50,-96,-26
0.127474,45,1731,8100,88,-77,-26
0.127615,64,1702,8043,0,-71,12
0.127753,-9,1724,8067,81,-77,-64
0.127893,-23,1693,8122,25,-77,-20
0.128032,-17,1731,8121,37,-26,-1
0.128171,45,1705,8127,44,-109,-20
0.128311,20,1735,8078,31,-77,-26
0.12845,21,1768,8099,81,-71,-20
0.128589,43,1714,8044,12,-58,-13
0.128729,37,1738,8060,75,-122,-45
0.128868,32,1718,8030,19,-33,-1
0.129008,46,1711,8085,31,-77,-1
0.129146,30,1712,8112,69,-77,-32
0.129286,16,1711,8134,50,-71,-39
0.129425,2,1688,8081,50,-71,-13
0.129564,-8,1684,8124,37,-45,25
0.129704,17,1752,8068,69,-141,-96
0.129843,5,1764,8092,31,-26,-1
0.129982,-18,1699,8102,0,-71,37
0.130122,28,1704,8121,100,-84,-96
0.130261,25,1752,8123,31,-58,43
0.1304,58,1680,8075,63,-109,-70
0.13054,36,1736,8079,25,-26,6
0.130679,17,1739,8063,69,-135,-45
0.130818,30,1634,8067,0,-20,18
0.130958,9,1671,8102,75,-103,-58
0.131097,47,1734,8029,44,-52,6
0.131236,35,1672,8064,12,-90,-20
0.131376,2,1697,8050,81,-84,-39
0.131515,8,1692,8082,25,-65,-32
0.131654,2,1730,8031,37,-45,25
0.131794,27,1754,8046,63,-84,-39
0.131933,16,1737,8030,37,-65,-39
0.132072,3,1745,8077,31,-65,25
0.132212,8,1740,8101,63,-84,-51
0.132351,-4,1750,8058,37,-90,-32
0.13249,38,1720,8044,50,-52,-1
0.132629,37,1705,8108,75,-77,-1
0.132769,35,1744,8134,0,-45,-32
0.132908,27,1649,8083,50,-65,-20
0.133047,38,1700,8061,75,-77,-32
0.133187,33,1740,8058,31,-58,-26
0.133326,1,1748,8039,31,-84,6
0.133465,27,1708,8018,63,-84,-51
0.133605,22,1711,8029,19,-71,25
0.133744,31,1692,8058,63,-65,-39
0.133883,29,1719,8081,69,-96,-20
0.134023,29,1743,8095,31,-45,-32
0.134162,5,1728,8070,44,-52,-7
0.134301,14,1712,8102,25,-96,-20
0.134441,-45,1693,8141,19,-45,-7
0.13458,-24,1742,8117,81,-84,-20
0.13472,27,1713,8096,44,-77,-45
0.134858,-9,1672,8080,37,-65,18
0.135,44,1706,8080,44,-58,-58
0.135137,14,1776,8048,25,-65,-7
0.135276,53,1698,8118,69,-84,-32
0.135416,40,1731,8086,19,-71,-13
0.135555,-61,1714,8015,63,-39,-39
0.135694,26,1722,8050,69,-103,12
0.135833,18,1728,8079,19,-90,-51
0.135973,27,1694,8089,44,-45,6
0.136112,-3,1719,8041,25,-77,-32
0.136251,26,1768,8099,63,-84,-32
0.136391,0,1719,8082,19,-58,-1
0.136531,3,1724,8101,100,-90,-45
0.13667,-19,1749,8058,-63,-39,18
0.136809,30,1666,8057,113,-96,-51
0.136948,-14,1662,8101,37,-65,-39
0.137088,62,1702,8047,25,-77,6
0.137227,-8,1671,8106,63,-65,-20
0.137367,-24,1692,8068,31,-77,-39
0.137505,-29,1679,8045,44,-84,-26
0.137645,37,1724,8062,37,-45,-20
0.137786,12,1703,8064,25,-58,-7
0.137923,26,1767,8096,75,-65,-26
0.138063,2,1734,8060,88,-84,-77
0.138203,-13,1693,8058,-38,-52,56
0.138341,-17,1698,8076,63,-65,-45
0.138481,-29,1721,8141,56,-103,-58
0.138624,-8,1747,8039,-19,-39,12
0.138759,-14,1773,8053,75,-84,-45
0.138899,9,1709,8047,12,-58,25
0.139038,51,1705,8039,94,-71,-45
0.139177,37,1739,8062,25,-71,-20
0.139319,46,1738,8051,6,-39,12
0.139456,6,1689,8090,88,-141,-64
0.139595,-3,1702,8112,19,-7,-7
0.139736,23,1747,8067,56,-96,-32
0.139874,0,1662,8076,19,-58,-7
0.140013,65,1675,8158,63,-77,-26
0.140153,-22,1757,8112,50,-71,-58
0.140292,-7,1702,8064,25,-90,6
0.140431,-27,1684,8098,37,-65,-1
0.14057,21,1744,8075,56,-77,-51
0.14071,22,1700,8090,44,-45,-20
0.140849,-3,1719,8054,37,-103,6
0.140988,50,1719,8044,88,-65,-32
0.141128,12,1696,8093,6,-77,-32
0.141267,-27,1715,8039,19,-39,-13
0.141406,-14,1695,8039,75,-109,-20
0.141546,-28,1682,8116,31,-45,-13
0.141685,-54,1741,8118,56,-84,-32
0.141824,-7,1697,8093,0,-65,-32
0.141964,37,1728,8046,63,-45,-20
0.142103,19,1722,8047,44,-109,-7
0.142242,6,1750,8081,56,-77,-26
0.142382,-4,1675,8075,31,-65,-13
0.142521,56,1777,8066,44,-77,-32
0.14266,-6,1759,8149,31,-90,-1
0.142799,40,1764,8094,63,-45,-20
0.142939,50,1713,8106,31,-58,-45
0.143078,-13,1737,8061,100,-128,-20
0.143217,14,1711,8068,-19,-13,-1
0.143357,58,1696,8064,81,-122,-39
0.143496,-33,1753,8053,50,-52,-13
0.143635,8,1719,8046,-13,-58,12
0.143775,13,1670,8051,81,-65,-45
0.143914,26,1675,8067,31,-77,-26
0.144053,15,1695,8101,94,-65,-20
0.144192,-38,1710,8119,6,-65,25
0.144332,44,1732,8044,63,-103,-45
0.144471,37,1699,8016,31,-65,-64
0.144611,22,1723,8073,37,-45,25
0.14475,14,1735,8088,69,-90,-32
0.144889,25,1726,8051,37,-77,-26
0.145028,41,1688,8042,50,-58,-26
0.145168,72,1703,8036,0,-39,12
0.145307,-17,1733,8054,94,-109,-64
0.145447,-14,1698,8106,6,-52,-7
0.145586,-8,1724,8151,50,-90,-39
0.145725,-14,1725,8050,50,-77,-7
0.145864,14,1727,8033,44,-77,-45
0.146003,53,1726,8055,63,-71,6
0.146143,9,1751,8094,44,-90,-26
0.146282,17,1693,8119,19,-71,-32
0.146421,11,1685,8080,56,-65,-7
0.146561,-17,1687,8137,56,-71,-32
0.1467,12,1726,8097,50,-84,-1
0.14684,40,1777,8103,0,-90,-77
0.146979,-34,1632,8166,94,-65,25
0.147118,26,1707,8065,31,-45,-1
0.147258,36,1647,8020,25,-84,-45
0.1474,13,1696,8064,44,-71,-20
0.147536,68,1709,8107,69,-45,-13
0.147675,34,1728,8060,19,-77,-32
0.147815,32,1745,8068,56,-90,-32
0.147954,2,1781,8082,31,-33,25
0.148094,-20,1730,8093,50,-96,-51
0.148233,26,1728,8073,25,-52,-7
0.148373,3,1671,8060,50,-65,-13
0.148511,13,1784,8100,-13,-58,-13
0.148651,12,1739,8054,69,-65,-13
0.14879,55,1696,8054,56,-77,-51
0.148929,70,1720,8088,37,-71,-32
0.149069,74,1693,8084,44,-52,12
0.149208,8,1726,8091,31,-109,-58
0.149349,24,1747,8083,44,-45,25
0.149487,37,1694,8085,25,-52,-7
0.149626,6,1670,8081,94,-96,-58
0.149767,44,1726,8080,44,-71,-13
0.149905,46,1698,8070,12,-45,-7
0.150044,-25,1739,8037,69,-103,-26
0.150183,22,1725,8043,19,-45,-39
0.150324,27,1668,8050,50,-71,18
0.150462,39,1684,8055,50,-90,-39
0.150601,83,1729,8074,56,-84,-51
0.150741,-17,1716,8073,25,-45,-1
0.15088,26,1736,8049,63,-71,-26
0.151019,5,1713,8061,6,-58,-39
0.151159,44,1750,8041,88,-96,6
0.151298,-45,1759,8091,37,-84,-39
0.151437,12,1687,8096,44,-20,-7
0.151576,36,1724,8066,63,-96,-39
0.151719,3,1732,8032,6,-58,-13
0.151855,11,1733,8072,44,-65,6
0.151994,-15,1717,8114,69,-84,-39
0.152134,11,1714,8109,19,-58,-26
0.152273,12,1731,8070,44,-90,-32
0.152412,14,1697,8031,50,-52,18
0.152552,50,1726,8050,25,-109,-58
0.152691,6,1703,8110,63,-39,12
0.15283,22,1700,8089,6,-77,-26
0.15297,37,1682,8091,50,-84,-20
0.153109,63,1691,8050,88,-71,-58
0.153248,-6,1708,8091,19,-65,50
0.153388,-9,1715,8071,44,-65,-70
0.153527,2,1691,8088,31,-52,-26
0.153666,-23,1659,8145,44,-109,-20
0.153805,-21,1687,8121,31,-52,-20
0.153945,9,1720,8098,88,-96,-20
0.154084,26,1758,8070,19,-65,-20
0.154223,-16,1711,8137,75,-65,-1
0.154365,-3,1717,8127,0,-116,-64
0.154502,-3,1716,8059,44,-39,37
0.154641,65,1744,8088,56,-65,-58
0.154781,33,1745,8051,12,-45,31
0.154921,8,1695,8099,75,-103,-58
0.15506,-14,1676,8115,63,-52,-20
0.155199,6,1746,8075,-6,-84,6
0.155339,43,1708,8102,69,-33,-45
0.155477,81,1713,8077,56,-109,-39
0.155616,24,1737,8123,25,-52,31
0.155756,33,1675,8133,56,-45,-26
0.155895,23,1750,8038,44,-96,-58
0.156034,17,1730,8030,-6,-58,-1
0.156174,19,1733,8037,69,-58,6
0.156313,-9,1691,8115,63,-96,-45
0.156453,19,1710,8101,19,-71,-58
0.156591,47,1699,8101,69,-65,31
0.156731,37,1703,8090,44,-90,-64
0.156872,14,1724,8100,31,-58,-1
0.15701,38,1639,8096,31,-71,-7
0.15715,78,1660,8075,81,-84,-51
0.157288,2,1690,8068,-6,-45,12
0.157429,-9,1723,8117,56,-77,-58
0.157567,15,1676,8107,50,-77,-1
0.157706,62,1714,8069,31,-71,-13
0.157845,40,1699,8061,63,-71,-20
0.157986,-24,1729,8129,37,-65,-39
0.158124,30,1738,8107,-13,-33,25
0.158265,2,1700,8092,94,-122,-77
0.158403,-29,1649,8062,19,-26,37
0.158542,12,1650,8085,56,-84,-96
0.158682,36,1696,8095,19,-33,25
0.158821,5,1708,8096,63,-141,-83
0.15896,27,1688,8043,12,-33,37
0.1591,35,1693,8058,44,-65,-51
0.159239,2,1714,8070,25,-84,6
0.159378,24,1685,8059,94,-103,-58
0.159518,21,1680,8125,-19,-45,-1
0.159657,26,1714,8138,37,-52,-7
0.159796,27,1716,8081,69,-58,-45
0.159935,31,1752,8106,25,-103,-1
0.160075,17,1709,8118,25,-58,-70
0.160216,14,1701,8042,37,-71,31
0.160354,-35,1708,8115,37,-52,-58
0.160493,-22,1760,8192,81,-84,-32
0.160633,38,1741,8082,19,-84,-32
0.160771,3,1688,8115,63,-58,-13
0.160911,-19,1686,8110,56,-52,-26
0.16105,32,1749,8101,12,-84,-7
0.161189,22,1732,8091,63,-52,-20
0.161328,-10,1708,8070,19,-103,-45
0.161468,28,1724,8079,69,-58,6
0.161607,55,1714,8086,25,-65,-45
0.161747,49,1711,8081,31,-77,25
0.161886,-1,1744,8054,81,-71,-70
0.162025,33,1689,8079,-6,-58,31
0.162165,43,1718,8100,81,-109,-70
0.162304,41,1659,8086,25,-52,12
0.162443,-24,1704,8127,69,-77,-39
0.162582,-5,1707,8066,25,-58,-1
0.162722,-10,1715,8078,69,-90,-70
0.162861,45,1697,8069,44,-58,18
0.163,53,1754,8019,69,-71,-51
0.16314,3,1719,8040,25,-52,12
0.163279,14,1720,8094,44,-128,-58
0.163418,35,1738,8127,44,-45,-7
0.163557,14,1730,8090,37,-58,-26
0.163697,17,1705,8043,56,-90,-39
0.163836,22,1689,8142,31,-58,-1
0.163976,-35,1733,8085,50,-90,-51
0.164115,27,1722,8090,69,-77,-20
0.164254,67,1737,8056,19,-71,-20
0.164393,29,1702,8080,31,-58,-20
0.164533,28,1690,8060,75,-96,6
0.164672,56,1670,8050,19,-65,-39
0.164811,10,1695,8092,37,-71,6
0.164951,22,1742,8067,69,-77,-77
0.16509,-18,1758,8051,12,-84,37
0.165229,-68,1683,8055,56,-77,-70
0.165369,-20,1687,8064,37,-58,25
0.165508,-8,1692,8082,56,-109,-77
0.165647,21,1736,8103,25,-45,31
0.165786,-48,1710,8087,50,-77,-32
0.165926,-38,1703,8112,25,-71,-39
0.166065,-40,1672,8070,31,-52,6
0.166204,-11,1704,8080,81,-84,-58
0.166344,27,1708,8068,31,-103,-32
0.166485,19,1678,8054,19,-33,25
0.166622,-1,1696,8093,44,-84,-58
0.166762,0,1739,8095,37,-45,-1
0.166901,12,1712,8090,75,-109,-51
0.167041,0,1706,8155,37,-65,-7
0.16718,-6,1722,8071,-19,-52,12
0.167319,19,1723,8052,100,-84,-83
0.16746,6,1683,8069,-6,-96,31
0.167598,-27,1692,8114,88,-26,-39
0.167737,-52,1736,8103,0,-90,-7
0.167879,44,1714,8103,63,-116,-26
0.168016,-8,1701,8102,63,-7,-26
0.168155,7,1736,8088,25,-65,-7
0.168296,-25,1754,8051,50,-90,-20
0.168434,37,1709,8120,69,-65,-58
0.168573,29,1731,8056,6,-65,6
0.168712,-2,1709,8056,75,-52,-13
0.168852,42,1752,8096,31,-84,-26
0.168991,15,1742,8135,37,-45,-13
0.16913,-14,1684,8138,12,-84,-39
0.16927,44,1700,8095,88,-58,-39
0.169409,20,1688,8093,31,-84,-20
0.169548,-5,1715,8075,50,-52,18
0.169688,35,1703,8067,44,-103,-64
0.169827,57,1737,8099,6,-65,25
0.169966,37,1678,8079,100,-71,-45
0.170105,15,1728,8113,12,-45,-45
0.170245,23,1676,8072,69,-96,6
0.170384,56,1685,8063,-13,-45,-26
0.170523,54,1709,8025,100,-96,-39
0.170663,5,1755,8088,-25,-26,-7
0.170802,-2,1713,8099,94,-90,-7
0.170941,-12,1706,8161,19,-103,-39
0.171081,-4,1706,8102,63,-52,-13
0.17122,16,1673,8026,25,-52,-26
0.17136,18,1682,8092,88,-58,-26
0.171499,29,1673,8126,12,-96,6
0.171638,107,1718,8077,44,-58,-32
0.171777,32,1707,8092,81,-116,-45
0.171917,21,1697,8096,-13,-13,25
0.172056,45,1731,8087,56,-103,-51
0.172195,1,1732,8079,19,-96,-26
0.172335,38,1725,8117,69,-52,-13
0.172474,-5,1727,8080,19,-52,6
0.172613,-20,1693,8127,56,-109,-70
0.172752,7,1724,8051,12,-52,25
0.172892,32,1764,8100,88,-103,-39
0.173031,46,1717,8095,12,-65,-20
0.17317,-13,1713,8166,19,-39,-13
0.17331,29,1672,8101,100,-90,-26
0.173449,29,1682,8114,-25,-71,-20
0.173588,-20,1696,8066,88,-65,-26
0.173728,-16,1715,8090,56,-77,-39
0.173867,40,1705,8112,31,-65,12
0.174006,8,1683,8107,56,-103,-45
0.174146,41,1712,8090,37,-58,-13
0.174285,5,1725,8105,37,-58,-13
0.174424,20,1741,8067,37,-90,-13
0.174563,39,1757,8121,50,-71,-39
0.174703,41,1757,8064,37,-58,-13
0.174843,25,1775,8056,44,-77,-20
0.174982,-3,1701,8105,69,-77,-32
0.175123,0,1684,8055,25,-65,-39
0.17526,45,1690,8050,19,-39,6
0.175399,31,1725,8088,100,-96,-64
0.175539,-21,1684,8072,-19,-39,25
0.175678,-12,1732,8060,69,-109,-20
0.175817,16,1761,8092,44,-26,-39
0.175956,19,1706,8074,19,-122,-26
0.176096,14,1705,8064,88,-58,-7
0.176235,-11,1690,8123,-13,-58,12
0.176374,26,1744,8082,100,-90,-64
0.176515,-3,1698,8095,12,-71,-7
0.176653,20,1696,8084,69,-39,-20
0.176793,21,1691,8089,44,-96,-20
0.176933,32,1803,8091,12,-45,25
0.177071,5,1779,8136,75,-77,-77
0.177211,-51,1786,8083,50,-103,-7
0.17735,67,1729,8041,6,-58,-13
0.177489,-2,1645,8062,94,-58,-20
0.17763,27,1696,8065,19,-71,-26
0.177768,17,1682,8101,19,-26,-1
0.177907,-12,1714,8071,88,-122,-45
0.178046,-30,1690,8099,31,-58,-26
0.178187,-7,1638,8072,31,-58,-20
0.178325,-5,1723,8077,25,-52,-20
0.178465,29,1737,8093,63,-77,-13
0.178605,21,1718,8092,56,-90,-26
0.178743,-5,1677,8094,-19,-65,-26
0.178882,12,1664,8081,75,-77,12
0.179022,91,1765,8072,37,-26,-26
0.179161,16,1705,8078,19,-122,-39
0.1793,-14,1765,8117,44,-71,-20
0.17944,8,1707,8068,56,-52,-7
0.179579,29,1731,8101,69,-103,-13
0.179718,27,1706,8104,12,-33,-45
0.179858,3,1708,8061,56,-116,-26
0.179997,16,1692,8059,37,-39,-7
0.180135,-44,1746,8087,63,-58,-7
0.180276,14,1716,8068,50,-84,-39
0.180415,-73,1693,8090,50,-58,12
0.180554,28,1690,8082,63,-96,-83
0.180693,-1,1707,8056,0,-39,43
0.180833,-10,1762,8101,69,-109,-64
0.180972,48,1755,8025,25,-45,-13
0.181112,-18,1709,8055,69,-58,18
0.181251,-28,1708,8074,12,-71,-26
0.18139,-14,1708,8134,69,-65,-32
0.181529,3,1706,8103,37,-116,-7
0.181669,-1,1714,8079,75,-45,-32
0.181808,-12,1741,8070,6,-77,-13
0.181947,-12,1665,8033,44,-52,-7
0.182087,3,1671,8087,75,-109,-45
0.182226,-47,1728,8076,25,-45,6
0.182365,3,1709,8072,63,-90,-77
0.182504,16,1705,8042,19,-84,50
0.182644,30,1732,8104,63,-77,-77
0.182783,16,1721,8095,12,-52,31
0.182923,30,1708,8102,56,-71,-39
0.183062,33,1607,8123,31,-96,-39
0.183201,1,1698,8086,69,-77,-13
0.183341,16,1663,8107,37,-58,-7
0.18348,27,1710,8109,31,-58,-39
0.183619,16,1761,8038,50,-58,12
0.183758,-7,1735,8050,44,-116,-70
0.183899,-16,1723,8097,50,-58,12
0.184037,-31,1728,8077,6,-77,-32
0.184176,13,1721,8057,56,-65,-13
0.184316,17,1719,8024,75,-71,-26
0.184455,-38,1696,8071,-19,-84,-32
0.184594,4,1740,8089,100,-71,6
0.184733,-44,1734,8074,12,-71,-39
0.184877,20,1703,8051,56,-96,-13
0.185013,-29,1684,8057,25,-26,-13
0.185151,-4,1692,8099,75,-147,-45
0.185291,23,1682,8084,6,-33,25
0.18543,61,1683,8130,56,-58,-39
0.18557,45,1733,8096,50,-84,-39
0.185709,2,1721,8068,56,-71,-20
0.185848,8,1712,7975,25,-52,-13
0.185987,43,1729,8077,37,-71,-13
0.186127,39,1697,8107,44,-58,-7
0.186266,43,1714,8124,69,-116,-39
0.186405,-24,1649,8128,37,-65,-39
0.186545,6,1671,8067,19,-52,12
0.186684,-7,1692,8112,50,-77,-58
0.186824,4,1713,8096,63,-71,-7
0.186964,-27,1684,8043,19,-71,-1
0.187103,-12,1733,8104,50,-52,-39
0.187241,-5,1701,8146,37,-71,-13
0.187386,11,1675,8079,37,-77,-13
0.18752,7,1713,8035,50,-90,-32
0.187659,1,1712,8056,0,-45,-7
0.1878,16,1718,8107,107,-103,-58
0.187938,2,1645,8052,-6,-33,-1
0.188077,17,1710,8069,75,-103,-20
0.188216,-36,1722,8096,31,-58,-58
0.188356,-10,1728,8087,69,-116,6
0.188495,6,1755,8058,-6,6,6
0.188634,52,1706,8105,63,-122,-32
0.188774,-12,1700,8055,37,-71,-45
0.188913,-4,1710,8031,50,-52,-7
0.189052,3,1705,8078,44,-90,-13
0.189192,12,1742,8078,63,-58,6
0.189331,43,1689,8034,6,-84,-45
0.18947,3,1719,8055,37,-58,6
0.18961,8,1727,8096,56,-90,-39
0.189749,12,1727,8026,50,-52,-39
0.189888,10,1689,8079,94,-84,-7
0.190028,44,1698,8088,-13,-45,-7
0.190167,66,1705,8038,63,-96,-13
0.190306,6,1699,8031,44,-39,-32
0.190445,-18,1663,8086,25,-103,-32
0.190585,68,1680,8037,56,-77,-13
0.190724,27,1688,8115,6,-45,-13
0.190863,24,1749,8065,81,-109,-13
0.191003,29,1712,8119,37,-39,-20
0.191142,45,1708,8059,31,-71,-13
0.191281,18,1692,8090,44,-84,-20
0.191421,23,1668,8094,56,-45,-20
0.19156,15,1726,8088,19,-84,-20
0.191699,-31,1703,8111,56,-39,-7
0.191839,45,1735,8056,25,-71,6
0.191978,10,1704,8103,75,-128,-64
0.192117,-19,1742,8108,63,-13,12
0.192257,-23,1720,8052,19,-77,-45
0.192396,67,1746,8040,44,-65,-13
0.192535,29,1680,8041,56,-84,-7
0.192675,10,1709,8080,19,-58,-7
0.192814,-30,1692,8170,56,-71,-51
0.192953,45,1690,8101,37,-71,-13
0.193092,46,1704,8065,69,-84,-32
0.193232,56,1771,8077,-19,-90,-13
0.193371,19,1712,8091,100,-26,-13
0.19351,26,1719,8092,38,-109,-32
0.19365,63,1736,8081,0,-45,-20
0.193789,42,1758,8099,94,-90,-7
0.193928,8,1681,8097,6,-45,12
0.194068,23,1687,8105,63,-90,-58
0.194207,-17,1656,8121,50,-39,-7
0.194346,42,1725,8083,50,-116,-32
0.194486,-19,1738,8097,56,-33,-51
0.194625,61,1710,8066,38,-96,-7
0.194764,21,1739,8037,0,-77,12
0.194904,-35,1735,8126,81,-33,-51
0.195043,-9,1704,8126,25,-109,-39
0.195182,-1,1638,8108,38,-77,31
0.195322,-4,1654,8037,50,-71,-58
0.195461,9,1738,8079,63,-96,-32
0.1956,15,1693,8110,25,-58,6
0.195739,11,1733,8107,31,-77,-7
0.195879,42,1710,8026,44,-84,-51
0.196018,20,1700,8080,31,-45,12
0.196157,-24,1723,8086,69,-109,-39
0.196297,29,1734,8075,25,-26,-7
0.196436,10,1755,8098,56,-122,-32
0.196575,26,1715,8043,25,-58,6
0.196715,44,1663,8090,63,-71,-20
0.196854,3,1670,8085,38,-77,-39
0.196993,-20,1677,8101,56,-90,-7
0.197133,62,1705,8105,38,-58,-7
0.197272,56,1678,8106,31,-84,-39
0.197411,74,1696,8153,50,-84,-26
0.197551,28,1749,8101,19,-71,12
0.19769,20,1732,8099,50,-58,-39
0.197829,33,1778,8058,44,-96,-39
0.197969,32,1701,8074,63,-65,12
0.198108,34,1709,8092,12,-45,-58
0.198247,20,1710,8116,50,-96,-7
0.198386,66,1747,8099,50,-65,-20
0.198526,98,1736,8053,6,-65,12
0.198665,95,1710,8046,100,-103,-70
0.198804,37,1754,8093,38,-65,25
0.198944,39,1695,8065,44,-65,-64
0.199083,-36,1668,8048,44,-71,-1
0.199222,11,1692,8056,44,-71,12
0.199365,49,1731,8065,56,-103,-89
0.199501,10,1708,8104,0,-26,-1
0.19964,-4,1704,8099,94,-96,-1
0.19978,14,1719,8085,44,-71,-64
0.199919,15,1729,8078,12,-58,25
0.200058,-16,1723,8049,56,-77,-39
0.200198,39,1730,8043,50,-45,25
0.200337,-37,1770,8079,38,-84,-77
0.200476,-36,1694,8173,63,-84,-7
0.200616,-10,1708,8142,19,-45,-45
0.200755,34,1682,8099,50,-77,-13
0.200894,0,1737,8078,38,-96,-26
0.201034,21,1726,8080,69,-84,-32
0.201173,3,1663,8062,0,-20,-1
0.201312,9,1715,8109,113,-122,-32
0.201451,40,1737,8087,-6,-26,-1
0.201591,16,1710,8117,63,-96,-32
0.20173,-1,1720,8060,12,-58,-32
0.201873,-27,1736,8125,56,-52,6
0.202009,6,1735,8088,0,-90,-51
0.202148,57,1739,8098,56,-52,12
0.202287,35,1752,8071,69,-96,-45
0.202427,-5,1764,8038,50,-52,-1
0.202566,-6,1714,8091,-6,-90,-26
0.202705,36,1745,8080,69,-65,-32
0.202845,15,1708,8083,38,-77,-32
0.202984,-1,1681,8124,50,-71,-13
0.203123,1,1760,8043,50,-52,-13
0.203263,-12,1668,8105,50,-96,-20
0.203402,-11,1679,8085,44,-71,-45
0.203541,-5,1686,8106,19,-45,12
0.203681,25,1725,8147,81,-103,-45
0.20382,31,1752,8117,25,-77,6
0.203959,28,1748,8097,44,-45,-26
0.204098,16,1733,8056,44,-109,-64
0.204238,-16,1746,8115,63,-52,50
0.204377,-16,1715,8104,44,-84,-51
0.204516,26,1679,8089,6,-39,-20
0.204656,26,1702,8088,63,-116,-20
0.204795,28,1685,8115,31,-45,-20
0.204934,11,1731,8097,31,-45,-20
0.205074,5,1729,8106,69,-90,-26
0.205213,4,1697,8113,50,-65,-20
0.205352,-23,1719,8094,38,-71,-58
0.205492,2,1734,8084,44,-58,18
0.205631,-7,1755,8061,63,-77,-51
0.20577,51,1708,8056,6,-65,31
0.20591,24,1747,8090,75,-65,-51
0.206049,15,1723,8113,25,-122,-13
0.206188,40,1706,8070,63,-52,-13
0.206328,-17,1716,8075,25,-65,-39
0.206467,-29,1716,8064,56,-103,-7
0.206606,-14,1749,8090,31,-71,-13
0.206745,45,1735,8081,44,-52,-7
0.206885,25,1713,8034,56,-77,-32
0.207024,-15,1706,8052,19,-77,-1
0.207163,27,1757,8084,69,-45,-64
0.207303,-15,1727,8080,19,-84,-7
0.207442,9,1681,8050,81,-71,-32
0.207586,-7,1701,8052,25,-90,-26
0.207721,52,1686,8082,31,-45,-13
0.20786,32,1680,8109,44,-65,-7
0.207999,40,1702,8102,38,-84,-20
0.208139,50,1718,8053,75,-116,-39
0.208278,55,1681,8105,6,-52,-26
0.208417,22,1719,8112,88,-77,-13
0.208557,-49,1684,8080,12,-77,-13
0.208696,12,1705,8070,75,-58,-51
0.208835,-12,1693,8077,0,-71,6
0.208975,13,1709,8103,107,-90,-45
0.209114,46,1714,8112,6,-45,-7
0.209253,17,1660,8096,44,-52,-20
0.209392,-7,1701,8074,75,-96,-32
0.209532,8,1678,8048,6,-90,-20
0.209671,8,1686,8050,31,-52,-13
0.20981,-41,1682,8074,88,-116,-51
0.20995,16,1690,8096,0,-20,18
0.210089,10,1723,8073,88,-90,-39
0.210228,21,1723,8121,-13,-45,-7
0.210368,24,1673,8133,125,-116,-45
0.210507,14,1712,8085,0,-20,12
0.210646,14,1748,8093,50,-103,-51
0.210786,55,1725,8080,69,-65,-1
0.210925,60,1734,8028,38,-77,-45
0.211064,5,1693,8083,56,-71,-1
0.211204,21,1710,8058,25,-77,-13
0.211343,71,1712,8082,25,-71,-39
0.211482,117,1761,8110,63,-90,-26
0.211622,-19,1700,8034,0,-58,18
0.211761,42,1717,8003,75,-58,-51
0.2119,54,1688,8095,56,-103,-13
0.212039,15,1668,8083,31,-58,-13
0.212179,27,1661,8078,75,-90,-51
0.212318,55,1716,8083,38,-52,25
0.212457,44,1696,8078,50,-84,-70
0.212597,55,1704,8072,31,-77,18
0.212736,15,1667,8078,63,-77,-26
0.212876,4,1801,8058,12,-52,-20
0.213015,27,1727,8037,69,-84,-51
0.213154,21,1682,8086,56,-39,12
0.213298,28,1710,8072,19,-96,-13
0.213433,-15,1697,8103,69,-65,-58
0.213572,13,1756,8081,-13,-77,12
0.213713,56,1728,8060,75,-20,-26
0.213851,88,1708,8045,56,-128,-51
0.21399,33,1708,8036,38,-58,18
0.214129,11,1738,8034,50,-90,-39
0.214269,23,1743,8066,31,-26,-51
0.21441,29,1693,8106,25,-90,25
0.214548,-21,1694,8134,56,-58,-26
0.214688,21,1724,8096,50,-71,-39
0.214826,13,1734,8093,25,-65,-7
0.214965,8,1671,8073,69,-77,-32
0.215105,3,1771,8007,19,-84,12
0.215245,21,1692,8091,50,-77,-77
0.215383,16,1721,8112,19,-58,-1
0.215523,2,1728,8073,75,-71,-32
0.215662,5,1722,8036,25,-58,-7
0.215801,32,1784,8091,25,-71,-7
0.21594,52,1736,8101,50,-90,-58
0.21608,29,1778,8069,56,-77,6
0.216219,-11,1710,8084,12,-65,-26
0.21636,41,1640,8112,88,-90,-13
0.216498,18,1721,8050,-19,-77,-13
0.216637,35,1725,8171,100,-77,-45
0.216776,14,1740,8151,38,-26,-1
0.216915,20,1761,8083,25,-90,-20
0.217055,59,1712,8105,69,-52,-58
0.217194,-11,1671,8075,31,-90,12
0.217333,-7,1728,8004,44,-71,-32
0.217473,22,1713,8028,12,-65,-7
0.217612,67,1728,8062,88,-90,-26
0.217751,-16,1679,8099,12,-90,-32
0.217891,41,1675,8102,12,-52,31
0.21803,76,1679,8057,107,-90,-77
0.218169,52,1745,8055,6,-39,37
0.218309,35,1676,8070,50,-96,-51
0.218448,76,1667,8109,63,-84,6
0.218587,-11,1679,8062,19,-45,-26
0.218727,31,1712,8052,75,-58,-26
0.218866,-6,1738,8077,44,-103,-20
0.219005,17,1738,8095,0,-39,-20
0.219144,34,1732,8100,63,-33,-32
0.219284,5,1671,8114,31,-116,-1
0.219423,19,1703,8081,25,-52,-45
0.219562,-19,1697,8116,63,-122,-1
0.219703,29,1689,8115,38,-45,-58
0.219842,21,1714,8093,44,-77,18
0.219981,28,1699,8070,6,-52,-51
0.22012,-12,1724,8076,69,-77,6
0.22026,63,1706,8144,38,-96,-39
0.220398,37,1702,8093,38,-52,-26
0.220538,36,1729,8089,44,-58,-32
0.220677,39,1711,8042,31,-77,-13
0.220818,44,1693,8041,31,-77,-20
0.220956,63,1717,8040,69,-77,-26
0.221095,27,1689,8032,19,-65,-1
0.221235,92,1732,8092,25,-58,-13
0.221374,29,1714,8105,75,-84,-64
0.221513,-13,1746,8123,25,-58,25
0.221652,-8,1718,8090,44,-52,-32
0.221797,15,1761,8051,50,-90,-13
0.221931,49,1731,8054,19,-26,-45
0.222071,69,1741,8093,63,-96,18
0.22221,25,1696,8036,38,-77,-58
0.222349,-37,1688,8075,25,-52,-13
0.222488,-19,1703,8114,75,-65,-39
0.222628,-9,1696,8059,12,-52,18
0.222767,-12,1708,8079,19,-77,-26
0.222908,8,1690,8079,94,-71,-26
0.223045,31,1761,8087,6,-77,-32
0.223185,33,1731,8118,63,-45,6
0.223325,23,1671,8115,12,-90,-32
0.223463,22,1718,8123,81,-84,-26
0.223603,32,1672,8048,12,-26,-13
0.223743,19,1702,8038,44,-84,-51
0.223881,-16,1687,8076,25,-39,12
0.224021,-3,1764,8088,50,-96,-51
0.224161,10,1735,8023,19,-58,-13
0.224299,-68,1699,8009,75,-45,-20
0.224439,7,1725,8078,25,-103,-20
0.224577,34,1689,8091,25,-52,6
0.224719,-2,1692,8089,69,-90,-58
0.224858,31,1724,8088,19,-45,-39
0.224996,98,1659,8083,44,-58,25
0.225136,20,1711,8093,56,-77,-26
0.225275,-8,1683,8122,19,-52,-13
0.225414,-19,1690,8102,63,-65,-51
0.225553,0,1725,8080,31,-65,6
0.225695,-8,1691,8065,31,-77,-39
0.225832,1,1727,8156,75,-58,-13
0.225971,21,1722,8077,38,-77,-26
0.226112,22,1687,8058,31,-52,-26
0.22625,-39,1686,8141,38,-65,6
0.226389,-6,1713,8052,19,-65,-58
0.226528,9,1661,8045,69,-116,-26
0.226668,42,1702,8110,6,-20,6
0.226808,6,1698,8124,56,-103,-26
0.226946,46,1723,8118,69,-71,-32
0.227087,27,1709,8036,0,-90,-20
0.227225,54,1743,8063,38,-39,-7
0.227367,24,1703,8100,38,-58,-45
0.227503,19,1737,8070,31,-65,6
0.227643,83,1740,8046,94,-109,-58
0.227782,37,1733,8031,-6,-45,-1
0.227921,-1,1732,8046,63,-77,12
0.228061,-28,1719,8136,-50,-45,-45
0.2282,2,1675,8097,151,-122,-32
0.228339,13,1682,8012,-13,-39,-13
0.228479,11,1664,8025,56,-71,-39
0.228618,-14,1698,8068,50,-52,-7
0.228758,-23,1682,8113,31,-45,-26
0.228897,-2,1685,8100,50,-103,-20
0.229036,-10,1704,8060,38,-45,-7
0.229176,20,1723,8052,31,-58,-7
0.229317,9,1718,8099,44,-96,-26
0.229454,24,1726,8138,25,-45,-26
0.229594,5,1677,8088,50,-90,-26
0.229733,33,1727,8127,63,-20,-1
0.229872,40,1706,8146,25,-109,-39
0.230011,26,1728,8088,75,-103,-20
0.230151,5,1761,8050,25,-20,-7
0.230289,38,1731,8010,56,-128,-51
0.230429,11,1720,8089,44,-20,6
0.230569,-26,1723,8085,6,-58,-32
0.230708,3,1674,8144,75,-109,-32
0.230847,32,1706,8097,44,-58,-20
0.230987,-33,1690,8038,25,-71,-20
0.231126,-12,1695,8116,56,-58,-39
0.231265,-17,1699,8135,50,-65,-1
0.231404,29,1704,8079,25,-84,-39
0.231544,37,1705,8083,50,-84,-20
0.231683,33,1726,8076,31,-77,-13
0.231823,-8,1715,8054,50,-71,-7
0.231962,-27,1669,8051,44,-65,-51
0.232101,18,1715,8080,44,-84,-13
0.23224,58,1694,8038,56,-96,-26
0.23238,18,1732,8079,31,-39,-32
0.232519,7,1738,8105,56,-96,-20
0.232658,-20,1709,8113,44,-58,-26
0.232798,20,1705,8094,19,-65,-1
0.232937,13,1716,8102,88,-90,-32
0.233076,13,1689,8062,50,-122,-26
0.233215,27,1723,8086,6,-1,-13
0.233355,26,1713,8101,94,-128,-77
0.233494,38,1678,8089,-19,-26,12
0.233633,75,1680,8076,75,-77,-20
0.233773,4,1669,8061,37,-65,-26
0.233912,0,1747,8021,12,-71,6
0.234052,-3,1742,8079,63,-65,-70
0.234191,51,1768,8069,37,-84,-13
0.23433,10,1691,8133,25,-39,6
0.234469,31,1672,8069,44,-84,-64
0.234609,47,1686,8024,69,-96,-7
0.234748,1,1721,8114,25,-77,-32
0.234887,-6,1740,8102,75,-103,-13
0.235028,39,1750,8084,6,-39,-1
0.235166,35,1750,8084,50,-71,-26
0.235305,-18,1715,8102,50,-77,-7
0.235447,0,1734,8112,50,-103,-45
0.235585,80,1730,8100,56,-33,-20
0.235725,48,1686,8094,25,-90,-1
0.235863,61,1675,8120,56,-39,-32
0.236003,42,1655,8120,25,-109,-1
0.236141,-6,1724,8095,37,-39,-32
0.23628,-12,1711,8040,81,-71,-20
0.23642,-15,1682,8112,31,-71,-20
0.23656,-1,1704,8109,25,-52,-32
0.236698,21,1724,8078,31,-84,-1
0.236838,6,1700,8071,56,-26,-32
0.236977,-40,1729,8086,44,-90,-32
0.237116,21,1704,8068,12,-77,-13
0.237256,68,1706,8107,88,-71,-20
0.237397,-16,1723,8137,-6,-65,-32
0.237534,-2,1704,8125,50,-96,-1
0.237676,35,1723,8107,37,-39,-26
0.237813,26,1741,8120,37,-90,-45
0.237953,32,1688,8078,56,-52,18
0.238092,53,1677,8080,19,-58,-39
0.238231,12,1741,8074,81,-122,-13
0.23837,32,1747,8053,-6,-26,-7
0.238509,17,1693,8054,56,-96,-26
0.238649,50,1705,8039,6,-77,-32
0.238788,54,1739,8076,107,-52,-26
0.238928,23,1750,8083,12,-90,-26
0.239067,6,1679,8137,63,-58,-32
0.239206,23,1697,8065,19,-65,-1
0.239345,-9,1711,8103,37,-65,-1
0.239485,-31,1716,8104,31,-84,-89
0.239625,38,1746,8082,63,-71,12
0.239764,19,1719,8095,50,-71,6
0.239903,41,1705,8046,0,-65,-39
0.240042,12,1728,8108,63,-33,-32
0.240182,4,1645,8072,81,-128,-51
0.240322,34,1684,8100,-6,-20,62
0.24046,40,1691,8101,37,-96,-83
0.240599,22,1734,8105,69,-52,-1
0.240739,61,1745,8094,31,-77,-32
0.240878,-12,1714,8117,31,-39,-1
0.241017,-34,1703,8087,56,-128,-51
0.241157,-30,1674,8078,31,-20,-1
0.241296,6,1719,8084,56,-65,-13
0.241435,-42,1740,8136,50,-96,-45
0.241575,6,1699,8114,31,-52,12
0.241715,-28,1747,8125,50,-77,-26
0.241853,-20,1731,8063,63,-71,-45
0.241993,31,1691,8094,31,-77,-13
0.242133,16,1688,8140,44,-45,12
0.242271,47,1704,8110,31,-90,-51
0.242411,-13,1722,8091,88,-58,-32
0.24255,9,1667,8174,25,-84,31
0.242689,-3,1698,8117,19,-45,-45
0.242828,44,1751,8088,69,-90,-64
0.242968,25,1689,8113,19,-84,56
0.243107,18,1711,8044,69,-58,-77
0.243246,34,1699,8050,31,-90,-20
0.243386,-11,1682,8085,63,-58,-7
0.243525,12,1716,8105,-25,-45,6
0.243665,57,1768,8097,56,-103,-64
0.243805,32,1700,8117,44,-52,-7
0.243944,8,1749,8118,37,-77,-39
0.244082,41,1650,8070,31,-71,-1
0.244222,17,1672,8073,63,-65,-13
0.24436,21,1691,8107,50,-71,-32
0.2445,55,1693,8049,6,-52,-13
0.244639,-19,1719,8089,63,-109,-20
0.244779,52,1754,8117,44,-45,-20
0.244918,36,1739,8111,44,-58,-13
0.245057,-18,1743,8088,50,-71,-45
0.245197,2,1771,8072,44,-116,-20
0.245336,0,1687,8102,37,-52,-13
0.245475,13,1692,8086,63,-90,-20
0.245615,2,1705,8075,50,-71,-39
0.245754,19,1751,8133,6,-26,-7
0.245895,-19,1716,8145,56,-122,-1
0.246033,-16,1745,8101,63,-71,-58
0.246172,23,1708,8051,19,-65,6
0.246312,-14,1691,8131,56,-103,-26
0.246451,7,1703,8013,44,-58,-26
0.246592,-25,1711,8067,31,-65,12
0.246729,-5,1660,8104,63,-77,-58
0.246869,-13,1727,8102,56,-71,-20
0.247008,-24,1769,8070,6,-33,-26
0.247147,-29,1725,8049,63,-116,-7
0.247288,22,1691,8058,0,-58,-20
0.247426,11,1715,8074,69,-45,-13
0.247565,14,1722,8100,37,-109,-32
0.247704,40,1724,8068,31,-58,-26
0.247844,63,1711,8085,12,-45,12
0.247983,7,1706,8114,75,-103,-39
0.248122,49,1721,8082,19,-65,-13
0.248262,27,1708,8068,50,-45,-13
0.248401,29,1695,8092,44,-109,-26
0.248541,62,1739,8077,63,-33,-26
0.24868,32,1730,8100,19,-77,-7
0.248819,29,1697,8062,50,-65,-13
0.248958,7,1703,8033,44,-71,-32
0.249098,23,1706,8070,88,-122,-51
0.249237,70,1710,8105,-6,-39,43
0.249376,14,1649,8119,69,-84,-51
0.249516,50,1688,8070,31,-96,-32
0.249655,52,1738,8083,19,-52,-1
0.249794,63,1751,8094,81,-77,-13
0.249933,48,1689,8107,-19,-65,-20
0.250073,71,1746,8130,69,-96,-7
0.250212,43,1736,8079,63,-71,-58
0.250352,43,1701,8102,37,-52,-7
0.250491,29,1735,8122,19,-96,-26
0.25063,60,1754,8135,56,-90,-32
0.25077,-5,1702,8145,56,-65,-20
0.250909,-19,1698,8135,25,-39,-1
0.251048,7,1693,8055,56,-90,-51
0.251188,-32,1668,8088,56,-65,-26
0.251327,43,1712,8067,-13,-84,12
0.251466,35,1720,8043,75,-77,-45
0.251605,25,1715,8053,31,-71,-20
0.251745,12,1732,8056,37,-71,6
0.251884,-26,1698,8094,50,-65,-39
0.252026,-25,1744,8080,44,-77,-26
0.252163,-11,1719,8059,25,-84,-7
0.252302,-12,1728,8127,50,-20,-13
0.252441,-70,1689,8078,37,-141,-39
0.25258,43,1702,8044,75,-52,-26
0.25272,23,1694,8104,12,-58,-13
0.252859,32,1708,8108,81,-96,-13
0.252999,-12,1708,8066,12,-45,-26
0.253138,-12,1706,8080,50,-90,-45
0.253277,-18,1698,8075,50,-45,-1
0.253416,42,1754,8075,6,-71,6
0.253556,-4,1705,8077,69,-71,-45
0.253695,-37,1725,8098,44,-71,-20
0.253834,55,1691,8106,56,-71,-7
0.253975,28,1732,8086,31,-65,-45
0.254113,35,1703,8092,25,-45,-13
0.254252,11,1703,8112,69,-84,12
0.254392,47,1674,8104,63,-96,-45
0.254531,-9,1717,8075,19,-58,-45
0.25467,-5,1707,8089,44,-52,-1
0.254809,20,1705,8098,37,-84,-32
0.254949,50,1716,8057,63,-77,-26
0.255088,6,1708,8032,31,-71,-7
0.255227,72,1696,8058,69,-71,-45
0.255367,68,1728,8095,25,-71,-13
0.255506,38,1722,8046,63,-84,12
0.255645,54,1712,8080,12,-84,-77
0.255785,-8,1629,8075,37,-45,62
0.255924,-10,1715,8077,88,-71,-96
0.256065,41,1703,8078,12,-71,31
0.256203,62,1687,8129,50,-58,-45
0.256344,2,1711,8111,69,-103,-1
0.256481,19,1729,8096,19,-45,-32
0.256621,-9,1690,8079,75,-84,-32
0.25676,-38,1687,8083,6,-65,12
0.256899,-4,1764,8067,50,-52,-32
0.25704,11,1724,8087,56,-90,-7
0.257178,-2,1688,8104,37,-52,-7
0.257318,23,1715,8130,50,-71,-45
0.257457,1,1751,8066,44,-71,-20
0.257596,-19,1694,8115,44,-65,12
0.257735,36,1679,8098,25,-52,-70
0.257875,-1,1716,8099,44,-103,-13
0.258014,-8,1712,8059,25,-65,31
0.258153,-2,1658,8111,100,-77,-77
0.258293,16,1715,8105,19,-84,-13
0.258432,21,1703,8014,63,-58,6
0.258571,-14,1703,8088,44,-45,-39
0.25871,-16,1720,8118,44,-96,-7
0.25885,8,1651,8114,12,-84,-45
0.258989,34,1711,8086,69,-58,-1
0.259129,34,1691,8099,25,-45,-58
0.259268,-4,1700,8079,31,-58,25
0.259407,32,1702,8086,50,-71,-64
0.259547,23,1747,8027,63,-58,25
0.259686,9,1704,8126,6,-71,-45
0.259825,23,1672,8091,94,-58,-51
0.259965,-8,1656,8056,12,-77,31
0.260103,-16,1596,8036,63,-65,-26
0.260243,3,1731,8053,12,-39,-26
0.260382,-9,1702,8064,44,-109,-32
0.260522,33,1741,8051,63,-26,-1
0.260661,72,1735,8030,19,-77,-20
0.2608,32,1676,8092,56,-90,-51
0.26094,20,1770,8063,44,-90,-1
0.261079,43,1700,8041,25,-33,-26
0.261218,36,1729,8098,69,-128,-45
0.261358,-20,1724,8146,25,-45,12
0.261497,20,1714,8127,50,-65,-13
0.261636,12,1786,8087,19,-90,-77
0.261776,-15,1744,8074,44,-52,50
0.261915,-15,1723,8090,94,-84,-96
0.262054,29,1697,8105,-19,-52,43
0.262194,45,1687,8053,107,-84,-45
0.262333,26,1679,8061,19,-58,-32
0.262472,34,1711,8133,37,-58,12
0.262612,-18,1665,8098,88,-116,-51
0.262751,-8,1657,8061,56,-39,-7
0.26289,31,1689,8103,6,-58,-20
0.263029,2,1718,8098,50,-84,-32
0.263169,51,1711,8103,56,-96,-20
0.263308,30,1710,8035,19,-52,-13
0.263447,-31,1775,8038,94,-77,-20
0.263587,27,1740,8119,-6,-90,-39
0.263726,19,1670,8136,50,-84,-26
0.263867,-24,1741,8122,44,-52,18
0.264005,-8,1733,8049,6,-58,-39
0.264144,40,1729,8049,88,-77,-20
0.264284,12,1686,8132,56,-96,-26
0.264423,20,1642,8103,31,-77,-26
0.264562,18,1710,8083,0,-52,-1
0.264701,59,1700,8083,63,-116,-51
0.26484,-5,1698,8082,25,-13,6
0.264979,18,1752,8055,88,-116,-26
0.265119,-4,1686,8103,6,-71,-45
0.265258,-4,1766,8118,56,-77,-20
0.265397,34,1714,8095,38,-65,25
0.265537,70,1640,8130,31,-71,-58
0.265676,40,1712,8052,56,-52,-7
0.265817,43,1742,8135,25,-116,-32
0.265955,51,1698,8124,75,-26,12
0.266094,35,1660,8096,12,-71,-32
0.266234,7,1720,8070,63,-84,-20
0.266373,40,1750,8074,38,-52,-7
0.266512,38,1686,8066,25,-77,-7
0.266651,-32,1745,8108,88,-116,-77
0.266791,14,1756,8060,6,-33,18
0.26693,-20,1710,8063,6,-65,-20
0.267069,73,1719,8127,88,-96,-51
0.267209,123,1708,8079,19,-39,31
0.26735,-16,1656,8050,25,-84,-64
0.267489,-9,1681,8090,56,-65,-7
0.267627,23,1718,8105,12,-45,-13
0.267766,26,1723,8059,81,-103,-39
0.267905,45,1684,8062,31,-77,-13
0.268045,19,1673,8111,50,-52,-7
0.268184,25,1740,8080,50,-71,-58
0.268323,-21,1728,8088,38,-77,6
0.268463,-23,1727,8063,63,-65,-13
0.268602,50,1717,8077,31,-65,-32
0.268741,1,1734,8071,50,-58,18
0.268881,30,1705,8066,75,-84,-77
0.26902,26,1718,8064,12,-58,-1
0.269159,-10,1761,8085,31,-77,-7
0.269299,12,1682,8117,75,-71,-39
0.269438,14,1701,8116,25,-52,-13
0.269579,30,1664,8097,44,-77,-32
0.269717,111,1715,8093,31,-71,-7
0.269856,66,1671,8087,56,-65,-51
0.269995,-30,1689,8095,25,-39,31
0.270135,23,1751,8099,56,-90,-45
0.270276,-20,1711,8102,19,-45,18
0.270413,36,1714,8071,88,-77,-39
0.270553,49,1739,8081,44,-58,-39
0.270692,60,1690,8120,-19,-65,-26
0.270831,58,1701,8111,81,-77,-26
0.270971,36,1675,8078,25,-90,37
0.27111,74,1665,8118,44,-7,-58
0.271249,29,1718,8110,50,-135,-13
0.271388,43,1767,8097,56,-39,-20
0.271528,16,1718,8075,44,-116,-26
0.271667,41,1759,8079,56,-71,-20
0.271806,26,1698,8109,50,-39,-32
0.271946,-21,1722,8059,6,-96,6
0.272085,-13,1706,8103,81,-65,-20
0.272224,26,1689,8090,38,-65,-32
0.272365,0,1708,8070,56,-45,6
0.272503,17,1714,8099,63,-116,-51
0.272642,29,1727,8022,31,-71,-7
0.272782,4,1650,8090,38,-45,-32
0.272921,48,1769,8160,50,-96,-7
0.27306,14,1747,8082,25,-77,-39
0.2732,3,1724,8082,100,-65,-39
0.273339,-13,1762,8081,0,-58,25
0.273478,-38,1735,8068,38,-109,-45
0.273617,28,1729,8068,25,-52,-20
0.273756,-14,1719,8098,69,-90,-1
0.273896,-7,1681,8107,19,-39,-45
0.274037,13,1738,8112,50,-77,-13
0.274175,5,1704,8072,63,-103,-39
0.274315,-9,1745,8117,6,-33,37
0.274454,36,1713,8069,94,-116,-77
0.274593,17,1749,8122,6,-39,12
0.274731,5,1731,8095,63,-103,-13
0.274871,42,1737,8092,44,-65,-64
0.27501,-18,1703,8094,56,-103,6
0.27515,46,1728,8081,31,-20,-13
0.275289,10,1685,8074,31,-135,-32
0.275428,26,1692,8070,31,6,-1
0.275568,22,1718,8044,94,-116,-45
0.275708,-22,1707,8070,6,-52,-32
0.275847,-29,1720,8079,69,-84,-7
0.275986,0,1690,8032,31,-77,-32
0.276126,0,1720,8037,50,-71,-7
0.276264,26,1752,8081,25,-71,-13
0.276404,42,1678,8102,63,-77,-26
0.276544,19,1721,8090,56,-109,-39
0.276682,12,1679,8098,38,-26,25
0.276822,0,1706,8076,50,-84,-51
0.276961,15,1761,8050,-6,-45,-1
0.2771,57,1726,8073,100,-103,-77
0.27724,-9,1720,8094,6,-90,18
0.277379,-49,1704,8175,75,-71,-51
0.277518,4,1784,8087,6,-71,-13
0.277658,35,1730,8076,69,-39,-13
0.277798,-26,1710,8038,25,-65,-26
0.277936,-15,1731,8151,69,-109,-26
0.278075,37,1654,8066,6,-58,-51
0.278215,-10,1716,8029,63,-58,18
0.278354,4,1693,8055,19,-84,-51
0.278494,21,1674,8073,75,-58,-7
0.278633,0,1731,8130,75,-122,-58
0.278772,26,1801,8130,-6,-13,-1
0.278911,12,1769,8056,31,-96,6
0.279051,3,1683,8090,69,-77,-77
0.27919,26,1709,8097,44,-71,25
0.279329,-5,1738,8110,56,-52,-58
0.27947,16,1732,8087,25,-84,12
0.279608,42,1748,8056,25,-71,-13
0.279747,-11,1740,8107,94,-77,-51
0.279887,8,1712,8119,-19,-90,-7
0.280026,-12,1676,8123,69,-84,-51
0.280165,12,1697,8046,44,-39,37
0.280305,30,1696,8077,19,-96,-83
0.280447,8,1672,8114,75,-52,6
0.280583,51,1684,8124,-6,-77,-7
0.280723,22,1717,8072,75,-84,-64
0.280862,16,1739,8096,31,-77,-13
0.281001,16,1732,8098,44,-65,-1
0.28114,-19,1737,8125,38,-84,-26
0.28128,-15,1732,8077,75,-58,-7
0.281419,12,1722,8038,0,-65,-20
0.281559,3,1687,8096,75,-52,-20
0.281698,29,1692,8143,25,-58,-1
0.281837,13,1753,8128,69,-84,-70
0.281976,60,1712,8097,38,-71,6
0.282116,-18,1680,8077,19,-77,-39
0.282255,4,1705,8084,50,-65,-7
0.282394,43,1709,8140,50,-71,-45
0.282534,-14,1714,8111,56,-109,6
0.282673,-24,1694,8126,6,-39,-26
0.282812,-27,1689,8084,88,-52,-20
0.282952,-25,1710,8095,37,-84,-20
0.283091,2,1715,8074,63,-84,-32
0.28323,27,1678,8036,0,-58,-45
0.28337,3,1673,8125,50,-52,18
0.283509,38,1677,8127,56,-90,-51
0.283648,31,1718,8134,50,-45,-20
0.283789,11,1746,8141,25,-109,-13
0.283927,13,1709,8086,56,-39,6
0.284066,28,1674,8080,-6,-65,-51
0.284205,40,1721,8043,75,-96,-32
0.284345,16,1745,8074,31,-58,6
0.284484,-27,1688,8080,12,-71,-32
0.284623,-36,1705,8128,56,-77,-20
0.284762,22,1719,8079,69,-65,-7
0.284902,15,1681,8133,6,-65,-58
0.285041,-8,1708,8104,88,-52,50
0.28518,5,1732,8082,12,-141,-77
0.28532,-26,1653,8105,56,-26,-45
0.285459,50,1724,8094,50,-90,18
0.285598,-10,1728,8111,44,-96,-1
0.285738,10,1743,8080,25,-26,-58
0.285877,-16,1674,8070,81,-103,-7
0.286018,14,1674,8080,31,-58,-7
0.286156,17,1722,8085,44,-77,-45
0.286295,44,1709,8085,37,-77,12
0.286436,51,1686,8088,50,-58,-64
0.286576,62,1725,8059,6,-71,6
0.286713,20,1693,8042,63,-90,-51
0.286852,5,1724,8090,19,-45,18
0.286992,-22,1701,8101,50,-90,-51
0.287133,-6,1696,8115,75,-52,-7
0.287273,-15,1685,8092,12,-52,-39
0.287409,30,1710,8084,19,-77,-13
0.287549,-27,1711,8148,63,-71,-13
0.287688,-20,1733,8110,37,-71,-26
0.287827,-26,1751,8091,31,-65,-32
0.287967,36,1745,8102,44,-96,6
0.288106,6,1727,8111,50,-65,-64
0.288246,-5,1676,8089,56,-58,6
0.288385,1,1672,8076,6,-65,-32
0.288524,44,1732,8064,75,-77,-7
0.288664,39,1721,8080,6,-84,-64
0.288803,4,1728,8105,100,-65,-13
0.288942,0,1744,8089,-38,-84,-13
0.289081,10,1694,8096,94,-39,-20
0.289221,28,1734,8072,-13,-71,-1
0.28936,40,1731,8055,69,-65,-39
0.289499,4,1700,8030,44,-103,-39
0.289639,44,1668,8036,12,-45,6
0.289778,23,1722,8070,63,-65,-39
0.289917,37,1690,8073,50,-52,-20
0.290057,15,1723,8065,19,-96,-13
0.290196,45,1745,8111,81,-65,-13
0.290335,35,1701,8110,37,-58,-26
0.290475,48,1708,8095,50,-71,-20
0.290614,-16,1691,8103,69,-84,-51
0.290753,12,1723,8097,19,-39,25
0.290893,7,1752,8097,50,-77,-39
0.291032,8,1717,8042,44,-90,6
0.291171,44,1673,8103,75,-45,-89
0.29131,-14,1706,8108,12,-90,37
0.29145,-23,1713,8088,50,-52,-26
0.291589,0,1725,8102,88,-77,-39
0.291729,52,1761,8101,-13,-90,18
0.291868,-25,1704,8132,94,-84,-70
0.292007,25,1721,8057,-25,-20,25
0.292146,40,1697,8050,107,-103,-26
0.292286,2,1698,8102,31,-52,-39
0.292425,-53,1708,8031,37,-58,6
0.292564,37,1673,8067,81,-116,-45
0.292704,25,1633,8108,50,-65,-20
0.292843,24,1767,8078,50,-65,-13
0.292982,-5,1784,8022,12,-58,-1
0.293122,-24,1750,8127,88,-116,-83
0.293261,20,1722,8083,6,-39,43
0.2934,24,1727,8088,50,-77,-58
0.29354,-6,1755,8071,63,-90,-1
0.293679,-29,1744,8045,37,-26,-26
0.29382,-23,1704,8040,0,-103,-7
0.293959,-10,1706,8072,81,-77,-51
0.294097,73,1684,8117,37,-52,6
0.294236,47,1737,8106,37,-116,-26
0.294376,48,1704,8089,69,-26,-1
0.294515,-14,1655,8145,25,-96,-51
0.294655,5,1734,8063,19,-58,25
0.294793,-4,1725,8032,75,-84,-39
0.294932,-3,1700,8144,19,-71,-39
0.295072,-2,1702,8070,69,-77,-7
0.295211,15,1720,8103,12,-52,-45
0.29535,51,1775,8027,63,-84,-7
0.29549,17,1679,8057,31,-58,-13
0.29563,16,1690,8073,37,-58,-32
0.295768,12,1720,8075,56,-122,-20
0.295908,31,1724,8111,56,-33,-20
0.296048,-13,1705,8057,50,-77,-7
0.296186,-7,1750,8091,31,-77,-32
0.296327,27,1686,8036,31,-71,-7
0.296466,41,1709,8067,25,-84,-39
0.296604,51,1697,8152,75,-71,-1
0.296744,76,1705,8122,56,-84,-58
0.296883,45,1734,8066,-32,-20,37
0.297022,37,1737,8080,107,-128,-70
0.297162,18,1699,8145,31,-58,-1
0.297301,32,1659,8117,12,-84,-26
0.297443,13,1704,8031,44,-84,-20
0.29758,-4,1677,8084,63,-52,-26
0.297719,33,1707,8056,37,-65,-1
0.297858,55,1676,8042,50,-84,-20
0.297998,77,1717,8093,63,-90,-70
0.298137,33,1679,8086,12,-33,37
0.298276,28,1705,8114,25,-96,-39
0.298416,85,1700,8137,81,-77,-45
0.298555,22,1724,8063,0,-71,50
0.298694,47,1682,8047,63,-71,-89
0.298833,45,1744,8087,75,-96,-13
0.298973,2,1745,8042,6,-39,-7
0.299112,42,1748,8066,12,-90,-51
0.299251,12,1711,8100,44,-58,43
0.299391,21,1675,8021,50,-71,-77
0.29953,27,1700,8054,81,-96,-20
0.299669,4,1729,8045,6,-65,-13
0.299809,-3,1698,8033,31,-58,6
0.299948,21,1699,8070,63,-65,-89
0.300087,-57,1727,8032,12,-65,37
0.300227,13,1692,8066,81,-65,-45
0.300366,13,1730,8031,31,-96,-20
0.300505,-35,1697,8076,63,-13,-1
0.300645,27,1672,8122,75,-141,-64
0.300784,2,1698,8082,12,-26,-20
0.300923,42,1704,8094,44,-90,-26
0.301063,36,1725,8100,6,-33,31
0.301202,38,1741,8082,107,-96,-83
0.301341,2,1695,8066,6,-45,25
0.30148,7,1722,8038,100,-116,-77
0.30162,33,1718,8104,44,-7,37
0.301759,-34,1719,8105,-6,-116,-58
0.301898,13,1734,8053,69,-33,6
0.302038,-25,1727,8067,31,-103,-51
0.302179,12,1775,8054,75,-71,-7
0.302316,76,1747,8093,12,-65,-13
0.302456,-4,1658,8082,69,-65,-7
0.302595,23,1720,8072,63,-103,-58
0.302734,-4,1795,8035,6,-33,31
0.302874,10,1735,8002,119,-109,-77
0.303013,15,1719,8149,-13,-33,50
0.303154,62,1702,8080,63,-103,-51
0.303292,32,1705,8097,37,-39,-20
0.303431,24,1708,8056,75,-135,-39
0.30357,12,1720,8007,37,-33,-1
0.30371,23,1732,8093,-6,-71,-45
0.303849,7,1672,8114,63,-84,-1
0.303988,11,1693,8101,37,-33,-7
0.304127,33,1697,8021,75,-109,-39
0.304267,6,1759,7983,63,-71,-39
0.304406,6,1717,8077,6,-52,6
0.304545,39,1709,8105,37,-77,-26
0.304685,15,1735,8080,81,-52,-26
0.304824,31,1752,8054,12,-58,-20
0.304963,39,1771,8100,56,-65,-7
0.305103,25,1727,8070,50,-90,-45
0.305242,0,1708,8096,37,-84,-7
0.305381,-14,1745,8134,19,-39,-7
0.305521,20,1714,8079,50,-84,-26
0.30566,47,1757,8127,31,-77,-1
0.305799,-8,1766,8074,75,-58,-20
0.305939,45,1739,8158,19,-39,-26
0.306078,54,1711,8067,31,-103,-20
0.306217,62,1694,8136,50,-39,-45
0.306357,-3,1715,8109,44,-71,12
0.306496,26,1745,8077,69,-71,-26
0.306635,26,1696,8062,6,-84,-39
0.306774,-14,1674,8087,50,-20,43
0.306914,71,1703,8063,94,-122,-114
0.307053,47,1664,8093,19,-39,37
0.307192,1,1691,8063,50,-65,-20
0.307332,15,1711,8125,44,-71,-45
0.307471,-17,1676,8080,69,-71,-13
0.30761,-9,1725,8030,37,-65,12
0.30775,62,1657,8078,44,-52,-58
0.307889,70,1699,8066,69,-84,6
0.308028,2,1746,8075,6,-52,-32
0.308168,25,1754,8047,44,-90,-39
0.308307,9,1698,8068,56,-71,-26
0.308446,-11,1686,8162,31,-71,18
0.308586,19,1711,8141,56,-65,-45
0.308725,-20,1721,8136,37,-84,-20
0.308864,-16,1684,8124,44,-84,-13
0.309004,31,1715,8061,44,-71,-32
0.309143,12,1647,8073,56,-84,-13
0.309282,34,1684,8066,56,-65,-1
0.309421,25,1699,8066,25,-52,-70
0.309561,21,1713,8057,94,-84,12
0.3097,-9,1716,8093,-6,-52,12
0.309839,45,1700,8078,56,-90,-96
0.309979,27,1686,8057,44,-84,31
0.310118,28,1719,8060,44,-52,-45
0.310257,5,1729,8070,56,-96,-20
0.310397,-9,1691,8042,31,-39,-1
0.310536,66,1730,8060,63,-109,-1
0.310675,48,1761,8102,37,-39,-39
0.310815,-14,1742,8091,6,-84,-39
0.310954,-29,1714,8076,63,-84,25
0.311093,42,1674,8106,56,-90,-51
0.311233,41,1687,8086,44,-58,-20
0.311372,2,1723,8051,44,-52,6
0.311511,25,1719,8045,44,-96,-64
0.311651,36,1717,8057,44,-33,-1
0.31179,20,1717,8053,44,-103,-32
0.311929,-17,1745,8080,37,-58,-26
0.312069,16,1734,8059,69,-84,-39
0.312208,53,1703,8078,-6,-45,6
0.312347,40,1672,8078,50,-58,-20
0.312486,63,1652,8091,69,-135,-45
0.312626,59,1747,8096,31,-52,-26
0.312765,-15,1776,8102,50,-58,-7
0.312904,-14,1704,8085,19,-77,-13
0.313044,1,1664,8105,63,-96,-45
0.313183,-5,1708,8110,81,-39,-7
0.313322,50,1745,8090,-25,-77,-1
0.313462,15,1706,8080,63,-96,-45
0.313601,60,1671,8103,6,-45,-20
0.31374,61,1718,8086,69,-77,-26
0.31388,24,1704,8070,75,-109,-13
0.314019,-35,1715,8047,6,-45,6
0.314158,-27,1705,8065,56,-90,-39
0.314298,26,1700,8069,12,-65,-1
0.314437,18,1708,8049,81,-96,-51
0.314576,-13,1649,8127,31,-58,-26
0.314716,62,1709,8113,37,-52,18
0.314855,55,1767,8162,63,-109,-39
0.314994,27,1734,8094,25,-65,-39
0.315133,9,1671,8050,37,-39,18
0.315273,78,1680,8133,31,-90,-26
0.315411,19,1747,8087,75,-96,-45
0.315551,4,1712,8062,50,-77,-1
0.315691,42,1708,8114,6,-58,-26
0.31583,58,1763,8091,75,-45,-7
0.315969,8,1768,8031,25,-103,-45
0.316109,30,1728,8103,31,-58,-1
0.316248,30,1720,8066,75,-103,-51
0.316387,15,1690,8027,31,-96,12
0.316527,16,1732,8083,31,-13,-7
0.316666,15,1742,8108,88,-135,-64
0.316805,25,1724,8082,12,-26,18
0.316945,37,1711,8064,56,-96,-58
0.317084,47,1714,8064,50,-71,-20
0.317223,15,1762,8048,31,-84,-13
0.317365,30,1730,8053,75,-39,-26
0.317502,20,1697,8095,-6,-45,-20
0.317641,-16,1766,8072,81,-116,-32
0.31778,55,1767,8044,19,-39,12
0.31792,27,1742,8063,69,-65,-70
0.318059,24,1770,8117,25,-71,25
0.318198,-1,1713,8061,81,-84,-51
0.318338,2,1678,8090,37,-45,-7
0.318479,72,1694,8078,50,-65,-32
0.318616,64,1718,8130,12,-52,6
0.318756,78,1747,8078,56,-116,-58
0.318898,9,1701,8062,50,-65,-20
0.319034,25,1818,8110,37,-45,6
0.319174,35,1702,8086,37,-71,-70
0.319313,31,1706,8062,12,-71,12
0.319454,10,1678,8134,75,-52,-39
0.319592,41,1639,8095,44,-71,-13
0.319733,0,1684,8079,12,-77,-32
0.31987,26,1714,8049,50,-65,-13
0.32001,50,1705,8050,19,-90,-26
0.320149,25,1730,8037,50,-45,-13
0.320288,6,1714,8078,44,-71,-32
0.320428,-18,1635,8102,44,-45,-7
0.320569,17,1714,8082,25,-103,-1
0.320706,49,1747,8068,81,-65,-96
0.320846,-22,1732,8080,-25,-45,75
0.320985,-6,1673,8074,94,-116,-96
0.321124,-9,1710,8055,19,-26,6
0.321263,-54,1723,8021,81,-90,6
0.321403,24,1709,8060,12,-52,-39
0.321542,-5,1668,8031,25,-96,-32
0.321683,32,1687,8086,63,-52,-51
0.321821,5,1752,8114,63,-90,50
0.32196,32,1702,8060,-6,-58,-58
0.322099,11,1703,8112,88,-96,-32
0.322239,25,1739,8065,6,-52,12
0.322378,-10,1708,8045,69,-77,-64
0.322517,29,1713,8085,19,-77,37
0.322658,-11,1690,8112,50,-52,-58
0.322796,-26,1715,8120,63,-77,-7
0.322935,-18,1666,8138,37,-90,-26
0.323074,35,1747,8058,63,-58,-39
0.323215,14,1765,8080,25,-65,12
0.323353,-17,1750,8065,56,-77,-20
0.323492,-50,1686,8112,25,-58,-45
0.323632,41,1680,8075,63,-45,-1
0.323772,24,1742,8015,37,-109,-51
0.32391,-33,1693,8114,44,-52,-7
0.32405,-27,1676,8117,19,-65,-7
0.324189,-9,1724,8070,50,-77,-32
0.32433,-4,1681,8064,63,-77,-32
0.324467,-8,1693,8082,19,-52,-20
0.324607,22,1742,8036,56,-58,-13
0.324746,16,1665,8094,37,-77,-7
0.324886,-19,1703,8139,37,-103,-77
0.325025,-27,1730,8081,44,-26,31
0.325164,-4,1725,8094,25,-103,-45
0.325303,-12,1674,8074,69,-65,-26
0.325443,-16,1717,8085,31,-52,-51
0.325582,-7,1720,8036,44,-90,50
0.325721,19,1715,8088,63,-71,-70
0.32586,-9,1705,8068,6,-71,-1
0.326,42,1711,8100,69,-52,-45
0.326139,-5,1717,8096,6,-77,12
0.32628,12,1724,8080,75,-77,-32
0.326418,9,1723,8114,31,-90,-45
0.326558,15,1684,8116,56,-33,6
0.326697,52,1734,8092,12,-77,-26
0.326837,-14,1668,8116,75,-90,-32
0.326975,-19,1667,8085,-44,-45,6
0.327115,-18,1702,8061,107,-96,-45
0.327254,-2,1708,8102,37,-71,6
0.327393,-1,1698,8144,-6,-52,-20
0.327533,1,1712,8055,81,-135,-64
0.327674,39,1721,8125,0,-52,25
0.327812,11,1738,8096,63,-45,-32
0.327952,54,1714,8056,81,-77,-20
0.32809,47,1699,8065,6,-84,-1
0.328229,46,1719,8096,44,-65,-89
0.32837,25,1677,8033,37,-65,25
0.328508,6,1671,8127,19,-39,-7
0.328647,-9,1667,8065,81,-90,-58
0.328788,3,1677,8108,19,-90,-7
0.328926,7,1774,8099,37,-84,-39
0.329066,31,1709,8090,50,-20,-26
0.329205,-24,1714,8056,31,-103,-26
0.329344,15,1733,8076,44,-39,-32
0.329485,50,1656,8086,50,-84,18
0.329622,30,1715,8054,50,-52,-70
0.329762,25,1699,8108,19,-77,-1
0.329903,-4,1738,8079,50,-58,-20
0.330041,36,1713,8081,75,-90,-45
0.33018,49,1692,8120,19,-39,-13
0.330319,22,1659,8092,31,-58,12
0.330458,65,1691,8062,94,-96,-51
0.330598,71,1738,8062,12,-71,-32
0.330737,76,1713,8106,25,-52,31
0.33088,26,1668,8155,81,-96,-51
0.331016,-15,1658,8091,19,-39,-7
0.331156,37,1719,8060,63,-109,-39
0.331296,16,1713,8120,25,-26,18
0.331434,-33,1699,8091,50,-77,-13
0.331573,-58,1671,8092,56,-33,-39
0.331714,27,1723,8110,12,-96,-20
0.331853,43,1706,8077,63,-52,6
0.331991,67,1657,8047,44,-90,-58
0.33213,18,1689,8113,19,-52,-1
0.332269,-12,1714,8078,12,-26,-1
0.332409,27,1722,8062,88,-116,-32
0.332548,6,1721,8064,12,-20,12
0.332687,-4,1746,8051,94,-147,-58
0.332826,58,1685,8059,12,12,18
0.332967,26,1775,8087,25,-116,-39
0.333105,1,1784,8109,81,-52,-26
0.333245,20,1709,8093,37,-96,-13
0.333384,6,1689,8052,31,-77,-32
0.333524,1,1714,8104,56,-45,-1
0.333663,42,1693,8072,63,-96,-45
0.333802,8,1772,8090,-13,-33,-7
0.333942,39,1737,8084,113,-122,-26
0.33408,61,1738,8080,-13,-33,-7
0.33422,66,1707,8130,75,-84,-58
0.33436,-8,1682,8092,56,-45,25
0.334498,54,1709,8100,0,-71,-45
0.334639,-3,1718,8068,50,-58,-32
0.334777,28,1743,8149,44,-58,-7
0.334917,35,1708,8068,75,-65,-45
0.335056,48,1747,8080,0,-84,-7
0.335195,13,1729,8054,75,-58,-20
0.335334,27,1683,8135,6,-65,-32
0.335474,43,1697,8106,69,-65,-7
0.335613,56,1719,8107,94,-135,-39
0.335753,9,1754,8062,-19,-39,-13
0.335892,-49,1702,8107,44,-45,-39
0.336031,-25,1690,8113,69,-65,-20
0.33617,-4,1728,8095,31,-128,-20
0.33631,46,1772,8073,31,-20,-1
0.336449,-12,1682,8053,63,-90,-20
0.336588,7,1681,8072,75,-84,-83
0.336728,-17,1733,8108,6,-58,50
0.336867,7,1736,8078,6,-71,-58
0.337006,54,1670,8106,44,-52,-1
0.337146,-4,1681,8099,69,-116,-39
0.337285,59,1732,8061,31,-58,-20
0.337424,-16,1758,8026,50,-71,-13
0.337564,18,1696,8060,44,-52,-51
0.337703,27,1723,8113,69,-116,-26
0.337842,4,1729,8096,19,-33,25
0.337982,5,1698,8047,31,-65,-45
0.338124,44,1684,8080,37,-77,-7
0.33826,-20,1665,8098,63,-58,-7
0.338399,48,1736,8067,56,-77,-20
0.338539,-8,1706,8097,44,-58,-32
0.338679,23,1663,8067,50,-96,-7
0.338817,24,1659,8075,44,-65,-13
0.338957,-3,1672,8129,44,-71,-32
0.339096,4,1655,8120,31,-71,-32
0.339235,80,1697,8068,25,-71,-1
0.339376,35,1677,8082,81,-52,-39
0.339514,-9,1675,8068,19,-84,-26
0.339655,34,1661,8124,69,-58,25
0.339793,28,1762,8093,-6,-45,-45
0.339932,28,1712,8135,81,-84,-39
0.340071,46,1704,8093,31,-77,-7
0.340211,-4,1713,8040,50,-58,-7
0.34035,30,1740,8158,19,-52,-58
0.340489,-1,1699,8095,63,-90,-1
0.340629,3,1751,8068,0,-58,12
0.340767,11,1724,8115,88,-96,-83
0.340907,-1,1704,8090,19,-33,-1
0.341046,-3,1721,8094,44,-96,-13
0.341185,16,1727,8049,44,-39,-13
0.341325,-8,1756,8056,25,-84,-13
0.341464,-22,1743,8058,75,-96,-45
0.341604,10,1711,8069,50,-39,-20
0.341743,-49,1681,8077,31,-96,-1
0.341882,50,1685,8112,50,-45,-58
0.342021,-12,1704,8063,31,-77,-7
0.342161,-37,1737,8095,44,-58,-20
0.3423,8,1728,8073,50,-71,-45
0.34244,11,1738,8093,50,-109,6
0.342579,15,1666,8106,44,-39,-39
0.342719,-21,1705,8046,12,-103,-20
0.342858,-37,1670,8073,50,-39,-20
0.342998,-14,1692,8083,56,-109,-13
0.343136,-24,1718,8068,31,-45,-20
0.343276,-3,1759,8089,81,-71,-64
0.343415,-5,1710,8062,-13,-58,18
0.343554,39,1705,8126,94,-84,-64
0.343693,-46,1684,8149,37,-58,37
0.343833,-11,1677,8082,19,-65,-39
0.343972,9,1724,8055,75,-77,-39
0.344113,8,1739,8039,37,-52,-20
0.344252,30,1718,8098,-6,-84,-1
0.34439,-7,1737,8117,94,-90,-39
0.344529,-12,1696,8082,37,-77,-20
0.34467,23,1730,8092,19,-71,6
0.344808,7,1718,8058,25,-45,-32
0.344947,27,1718,8094,88,-96,-26
0.345087,15,1740,8031,-6,-33,-1
0.345226,20,1784,8038,31,-52,-7
0.345367,7,1667,8123,75,-103,-51
0.345505,20,1686,8108,0,-52,18
0.345644,19,1742,8094,81,-109,-64
0.345783,55,1743,8110,-13,-26,6
0.345922,-13,1716,8070,88,-84,-39
0.346062,38,1671,8069,12,-96,-7
0.346202,-63,1710,8069,44,-7,-20
0.346341,8,1750,8090,56,-154,-39
0.34648,33,1684,8107,6,-13,-1
0.34662,56,1632,8103,44,-77,-20
0.346758,0,1716,8115,56,-90,-58
0.346898,-25,1725,8111,0,-52,6
0.347037,23,1728,8062,100,-90,-32
0.347176,-24,1722,8104,6,-84,-20
0.347316,12,1736,8068,37,-45,-20
0.347455,-29,1724,8047,25,-65,-32
0.347594,18,1732,8047,50,-122,-7
0.347734,-4,1696,8056,37,-45,-26
0.347873,-13,1722,8115,63,-65,-13
0.348012,33,1700,8036,12,-96,-39
0.348151,56,1728,8047,75,-65,-32
0.348291,11,1692,8059,37,-77,-1
0.34843,0,1718,8117,44,-77,-39
0.348569,13,1711,8064,31,-52,-26
0.348709,18,1725,8112,50,-90,6
0.348848,40,1709,8065,56,-52,-32
0.348988,-7,1720,8084,37,-109,-13
0.349127,85,1730,8035,37,-52,-45
0.349266,65,1759,8070,56,-65,-7
0.349405,44,1728,8133,19,-45,-13
0.349545,27,1742,8114,69,-116,-45
0.349684,60,1722,8070,44,-52,6
0.349823,61,1675,8069,31,-84,-7
0.349963,30,1705,8123,37,-52,-58
0.350102,41,1745,8067,88,-90,6
0.350241,6,1730,8077,19,-84,-32
0.350381,-37,1669,8136,31,-33,-20
0.35052,-35,1661,8091,69,-109,-1
0.350659,-18,1649,8041,63,-58,-64
0.3508,14,1697,8072,25,-77,6
0.350938,5,1710,8065,56,-71,-39
0.351077,9,1719,8080,44,-58,-20
0.351217,-3,1679,8097,37,-52,6
0.351356,2,1709,8073,37,-96,-58
0.351495,-28,1716,8052,69,-90,-7
0.351634,-59,1682,8058,12,-7,-13
0.351774,-21,1663,8098,75,-135,-32
0.351913,6,1765,8094,50,-58,-26
0.352052,3,1679,8106,25,-39,6
0.352191,21,1685,8064,50,-96,-32
0.352331,40,1763,8039,12,-77,6
0.35247,54,1735,8101,56,-45,-58
0.35261,44,1703,8054,19,-84,-13
0.352749,40,1708,8068,69,-65,-1
0.352889,29,1721,8044,19,-71,-58
0.353028,27,1740,8075,63,-65,-20
0.353168,-24,1748,8091,25,-39,12
0.353306,15,1700,8162,50,-96,-32
0.353447,32,1692,8080,81,-84,-39
0.353585,2,1713,8095,19,-45,-32
0.353724,17,1739,8108,44,-77,-1
0.353863,26,1758,8125,56,-65,-20
0.354003,57,1729,8064,38,-90,-13
0.354143,51,1711,8055,25,-39,-13
0.354281,5,1710,8100,88,-109,-58
0.354422,25,1735,8054,-19,-39,12
0.35456,-3,1719,8065,63,-71,-58
0.354699,-13,1653,8104,38,-96,25
0.354839,-7,1684,8124,44,-33,-64
0.354978,-24,1714,8070,19,-84,12
0.355117,-25,1712,8034,69,-84,-45
0.355257,51,1666,8101,44,-77,-13
0.355396,22,1696,8084,44,-71,-32
0.355537,43,1723,8080,50,-33,12
0.355675,29,1744,8092,25,-96,-32
0.355814,32,1766,8056,44,-77,-20
0.355953,28,1767,8066,38,-71,-39
0.356094,40,1770,8110,31,-13,12
0.356237,-13,1672,8094,63,-122,-26
0.356371,25,1666,8056,25,-26,-26
0.356511,29,1712,8060,50,-116,-26
0.35665,-10,1670,8086,19,-20,-20
0.356789,-1,1696,8061,81,-103,-26
0.356928,28,1680,8089,19,-65,-32
0.357069,11,1686,8065,50,-65,-7
0.357207,57,1708,8019,63,-90,-39
0.357347,-32,1677,8055,-6,-45,-13
0.357486,-32,1738,8088,88,-52,-1
0.357625,3,1691,8096,38,-109,-51
0.357764,-45,1663,8122,38,-52,-7
0.357903,17,1733,8046,50,-109,-26
0.358043,27,1683,8059,19,-45,12
0.358182,-18,1718,8029,81,-77,-83
0.358322,7,1711,8052,-44,-26,43
0.358461,-2,1740,8100,113,-96,-77
0.3586,-10,1722,8056,31,-65,-13
0.358739,12,1737,8089,44,-39,12
0.358879,-17,1705,8105,56,-116,-51
0.359018,2,1712,8069,19,-45,-1
0.359158,3,1663,8068,69,-71,-45
0.359297,-12,1733,8075,0,-84,25
0.359436,-28,1735,8091,75,-71,-70
0.359575,8,1710,8136,6,-52,37
0.359715,-19,1711,8111,50,-90,-51
0.359854,47,1691,8090,56,-65,-20
0.359993,21,1726,8066,31,-65,-26
0.360133,14,1730,8045,63,-84,-20
0.360272,10,1747,8028,25,-39,-1
0.360411,-8,1708,8072,38,-103,-45
0.360551,-19,1709,8039,69,-77,-7
0.36069,1,1741,8070,50,-33,-32
0.360831,3,1674,8061,-6,-96,-39
0.360968,3,1701,8086,75,-65,18
0.361108,9,1724,8022,38,-71,-45
0.361247,-3,1721,8056,44,-52,-39
0.361387,6,1750,8086,25,-103,6
0.361529,-60,1691,8097,44,-58,-39
0.361665,11,1754,8053,63,-84,-39
0.361806,17,1701,8073,-6,-58,31
0.361944,11,1710,8030,81,-96,-51
0.362083,23,1717,8038,44,-52,-26
0.362222,7,1698,8062,25,-103,-1
0.362365,17,1700,8104,50,-58,-39
0.362501,45,1702,8062,50,-77,-13
0.36264,-53,1718,8083,6,-52,-13
0.362781,-49,1741,8028,81,-71,-13
0.362921,1,1673,8035,0,-96,-32
0.363059,31,1675,8045,56,-39,-7
0.363199,-4,1736,8046,56,-96,-45
0.363337,56,1766,8086,12,-45,37
0.363476,16,1682,8109,81,-77,-64
0.363616,-32,1696,8136,12,-77,-26
0.363755,40,1737,8078,69,-33,-20
0.363894,68,1689,8110,31,-109,6
0.364033,-30,1686,8080,50,-58,-26
0.364175,-5,1717,8080,12,-45,-13
0.364315,14,1744,8093,31,-96,-51
0.364451,-9,1735,8058,63,-77,-1
0.364591,66,1736,8078,50,-45,-13
0.364731,57,1715,8065,-6,-65,-26
0.36487,-2,1741,8098,81,-90,-39
0.365009,51,1701,8077,19,-45,25
0.365148,14,1693,8092,38,-90,-58
0.365287,19,1698,8118,44,-71,12
0.365427,15,1719,8083,50,-77,-45
0.365566,1,1664,8134,56,-52,-20
0.365705,-14,1722,8092,-25,-71,25
0.365845,24,1746,8084,113,-122,-83
0.365984,49,1700,8035,38,-1,25
0.366125,32,1741,8088,44,-103,-39
0.366263,61,1714,8098,69,-77,-39
0.366403,37,1689,8065,12,-39,12
0.366543,14,1678,8076,75,-116,-32
0.366681,22,1659,8069,-38,-39,-1
0.36682,-52,1719,8070,63,-84,-51
0.366959,-21,1692,8105,44,-71,-26
0.367099,-37,1674,8090,69,-77,-7
0.367238,-9,1730,8078,50,-65,-20
0.367377,-3,1709,8081,6,-45,-32
0.367517,2,1686,8082,69,-103,-13
0.367656,63,1662,8086,31,-58,-1
0.367795,15,1714,8074,44,-96,-64
0.367935,8,1682,8121,50,-33,12
0.368074,12,1737,8073,50,-96,-1
0.368213,67,1749,8068,44,-77,-39
0.368352,52,1666,8122,56,-58,-7
0.368492,49,1707,8089,25,-52,-13
0.368631,43,1747,8101,63,-77,-51
0.36877,46,1694,8096,56,-65,37
0.36891,0,1709,8119,19,-52,-51
0.369049,5,1691,8124,25,-77,-13
0.369188,-23,1658,8077,50,-65,6
0.369328,28,1715,8117,56,-90,-58
0.369467,41,1683,8068,19,-20,-7
0.369606,31,1659,8080,63,-128,-7
0.369746,-11,1678,8080,38,-26,-51
0.369885,5,1733,8088,50,-90,6
0.370024,59,1725,8122,12,-52,-13
0.370164,6,1735,8087,50,-96,-13
0.370303,41,1694,8049,50,-58,-45
0.370442,44,1716,8114,50,-77,-13
0.370581,-18,1689,8087,38,-71,-39
0.37072,55,1716,8056,50,-65,6
0.370861,28,1713,8024,25,-96,-39
0.371,-2,1689,8066,75,-39,6
0.371138,11,1671,8101,0,-90,-51
0.371278,9,1684,8129,69,-45,-20
0.371417,29,1700,8039,19,-103,-13
0.371557,30,1739,8056,94,-58,-32
0.371696,27,1730,8079,38,-96,-32
0.371835,72,1736,8103,19,-52,-7
0.371974,67,1722,8124,38,-71,-7
0.372114,52,1717,8108,69,-96,-64
0.372253,50,1748,8078,19,-77,-1
0.372392,19,1741,8081,50,-58,-1
0.372532,22,1719,8099,31,-77,-32
0.372671,-22,1714,8082,75,-39,-7
0.372811,29,1687,8083,50,-135,-39
0.37295,-1,1745,8068,38,-20,-39
0.373089,-33,1713,8074,44,-77,-7
0.373229,-26,1687,8061,69,-77,-13
0.373369,-15,1720,8125,25,-65,-20
0.373507,-25,1708,8083,69,-96,-20
0.373646,31,1704,8087,12,-65,-32
0.373786,21,1737,8019,63,-65,-7
0.373925,-19,1674,8034,56,-84,-39
0.374065,-15,1753,8043,25,-52,-7
0.374204,-17,1727,8063,69,-103,-26
0.374343,4,1734,8038,38,-39,-1
0.374483,40,1759,8064,31,-90,-45
0.374621,1,1745,8095,38,-58,-20
0.374761,-58,1723,8079,50,-65,6
0.3749,37,1712,8086,19,-84,-51
0.37504,2,1750,8098,56,-77,-20
0.375179,6,1695,8069,12,-39,6
0.375318,71,1716,8086,69,-96,-51
0.375458,-2,1682,8109,44,-71,-13
0.375597,69,1673,8070,44,-84,-7
0.375736,-8,1683,8062,63,-65,-51
0.375875,-38,1706,8037,63,-58,-20
0.376015,-24,1748,8078,-6,-52,6
0.376154,3,1702,8085,44,-84,-45
0.376293,-12,1702,8113,38,-58,6
0.376434,-33,1745,8088,56,-39,-26
0.376572,33,1732,8063,12,-128,-13
0.376712,6,1715,8042,56,-39,-26
0.376852,-47,1658,8078,50,-58,-26
0.37699,16,1697,8023,63,-58,-39
0.377129,3,1761,8076,12,-90,-1
0.377269,6,1700,8085,44,-33,-20
0.377408,-45,1721,8084,69,-116,-32
0.377547,-20,1701,8117,0,-52,-32
0.377687,-28,1699,8069,69,-45,25
0.377826,27,1678,8023,75,-122,-83
0.377965,21,1689,8076,19,-65,6
0.378105,16,1699,8081,44,-77,-26
0.378244,21,1713,8100,38,-45,-13
0.378383,2,1691,8132,75,-84,-58
0.378523,35,1730,8094,0,-58,18
0.378662,42,1717,8054,56,-71,-64
0.378801,7,1709,8038,44,-65,12
0.378941,25,1769,8109,75,-90,-26
0.37908,28,1716,8080,-6,-45,-45
0.379219,11,1679,8086,81,-90,-1
0.379358,-1,1715,8076,31,-77,-26
0.379498,10,1675,8058,81,-71,-51
0.379637,-2,1721,8022,-32,-33,69
0.379776,-5,1724,8080,107,-103,-102
0.379916,0,1698,8096,12,-58,25
0.380055,-17,1740,8067,56,-96,-51
0.380194,-15,1771,8112,56,-65,-13
0.380334,42,1718,8078,81,-84,-20
0.380473,6,1703,8085,-6,-52,-20
0.380612,37,1723,8063,56,-96,-26
0.380751,51,1746,8078,6,-45,-7
0.380891,38,1685,8125,75,-77,-39
0.381032,-2,1706,8094,81,-128,-1
0.381169,22,1660,8096,12,-20,-45
0.38131,4,1700,8132,19,-96,-13
0.381448,-24,1713,8083,56,-77,-32
0.381587,2,1718,8093,50,-45,-7
0.381727,-4,1698,8077,69,-109,-45
0.381866,-15,1698,8112,0,-52,12
0.382005,-28,1708,8106,75,-71,-32
0.382144,-4,1702,8089,44,-77,-7
0.382284,15,1712,8136,50,-103,-39
0.382423,11,1722,8101,38,-33,12
0.382563,-60,1719,8076,56,-103,-45
0.382702,-8,1674,8084,44,-77,-20
0.382842,-25,1632,8060,31,-45,12
0.382981,27,1704,8103,50,-90,-51
0.38312,35,1744,8136,38,-103,-1
0.383259,1,1690,8104,44,-52,-51
0.383398,21,1689,8104,25,-96,31
0.38354,29,1700,8097,88,-65,-77
0.383677,18,1738,8106,6,-84,-1
0.383816,-14,1709,8054,44,-52,-1
0.383956,29,1697,8108,38,-71,-13
0.384095,40,1699,8099,63,-65,-45
0.384241,52,1742,8122,-6,-45,-13
0.384377,17,1691,8066,25,-71,-7
0.384513,-11,1717,8070,69,-71,-45
0.384652,36,1715,8067,19,-84,6
0.384792,1,1707,8108,75,-45,-39
0.384931,-8,1689,8160,50,-109,-26
0.38507,-13,1686,8113,-13,-39,-32
0.38521,18,1696,8093,69,-90,6
0.385349,20,1729,8077,69,-84,-39
0.385488,26,1696,8133,31,-58,-20
0.385628,14,1651,8136,50,-52,-13
0.385767,63,1698,8144,88,-103,-45
0.385906,23,1722,8073,0,-52,-7
0.386046,16,1714,8065,38,-77,-7
0.386185,46,1701,8066,50,-58,-70
0.386324,51,1747,8106,31,-84,18
0.386464,19,1690,8103,100,-77,-39
0.386603,14,1700,8057,-32,-33,6
0.386742,40,1760,8069,125,-103,-51
0.386881,35,1731,8024,0,-52,-1
0.387021,24,1695,8086,31,-90,-13
0.38716,86,1710,8120,44,-33,-39
0.387299,17,1699,8098,38,-116,-20
0.387439,62,1720,8087,56,-65,-45
0.387578,12,1722,8061,44,-71,12
0.387717,28,1723,8053,12,-39,-32
0.387857,40,1719,8083,69,-90,-39
0.387996,12,1710,8095,12,-58,31
0.388135,3,1732,8084,50,-71,-51
0.388275,-11,1697,8063,25,-71,-26
0.388414,5,1670,8031,88,-90,18
0.388553,12,1709,8056,38,-77,-58
0.388692,26,1744,8093,12,-77,-39
0.388832,61,1731,8060,19,-65,31
0.388971,28,1689,8092,75,-84,-58
0.389111,33,1700,8104,38,-26,-7
0.389255,-18,1703,8060,63,-84,-20
0.389389,27,1682,8048,50,-77,-32
0.389528,-74,1722,8096,44,-65,12
0.389668,22,1779,8033,44,-96,-32
0.389807,76,1721,8075,25,-58,-20
0.389946,16,1706,8068,50,-58,-39
0.390086,24,1711,8066,56,-71,-20
0.390225,36,1675,8070,31,-84,6
0.390365,46,1703,8089,38,-39,-58
0.390504,5,1708,8131,50,-84,-7
0.390643,-26,1725,8032,44,-52,-20
0.390782,42,1712,8063,44,-103,-45
0.390921,19,1685,8168,38,-77,18
0.391062,-4,1715,8124,31,-45,-32
0.3912,28,1690,8126,25,-39,-20
0.39134,1,1694,8106,81,-116,-39
0.391479,14,1729,8073,25,-45,6
0.391618,-34,1698,8069,44,-77,-45
0.391757,1,1721,8141,44,-96,12
0.391897,44,1700,8125,44,-20,-32
0.392036,-9,1698,8124,50,-84,-26
0.392175,-14,1711,8069,44,-77,-20
0.392314,25,1692,8061,63,-45,-26
0.392454,21,1700,8101,12,-122,-20
0.392596,-15,1692,8117,56,-20,-26
0.392733,44,1736,8122,44,-90,-26
0.392872,55,1687,8100,19,-20,-7
0.393011,49,1709,8079,75,-128,-45
0.39315,-38,1724,8055,25,-33,-7
0.393291,-5,1721,8082,31,-65,-51
0.393433,24,1687,8066,94,-90,6
0.393568,10,1727,8111,38,-58,-32
0.393708,64,1755,8061,0,-39,18
0.393847,-4,1695,8120,63,-103,-51
0.393986,-42,1646,8096,31,-77,18
0.394127,57,1658,8049,69,-52,-51
0.394265,70,1722,8064,38,-77,18
0.394404,-10,1678,8102,63,-77,-77
0.394544,37,1715,8119,19,-58,12
0.394683,48,1696,8063,25,-77,-13
0.394822,-15,1657,8096,50,-65,-70
0.394961,34,1642,8072,12,-39,18
0.395101,19,1749,8100,63,-103,-32
0.39524,-26,1730,8090,19,-58,-13
0.39538,53,1735,8054,69,-71,-7
0.395519,37,1701,8082,25,-65,-26
0.395658,-2,1708,8056,25,-77,-26
0.395798,-20,1689,8100,81,-109,-64
0.395937,-43,1678,8098,12,-58,37
0.396076,-7,1739,8080,38,-58,-39
0.396216,-14,1684,8074,88,-96,-13
0.396355,10,1683,8120,6,-39,-32
0.396494,-35,1725,8059,44,-96,6
0.396634,-24,1708,8119,56,-65,-32
0.396773,-8,1672,8047,25,-77,-13
0.396912,-36,1698,8001,31,-84,-39
0.397052,4,1692,8115,81,-33,6
0.397191,-16,1686,8059,31,-96,-26
0.39733,-13,1719,8013,63,-84,-32
0.397469,-19,1702,8110,0,-39,-26
0.397609,57,1654,8102,88,-96,-32
0.397748,16,1725,8053,38,-77,-1
0.397887,28,1713,8027,38,-45,-39
0.398027,27,1740,8041,75,-96,-26
0.398166,28,1668,8105,12,-52,6
0.398305,-33,1702,8139,63,-103,-58
0.398445,9,1700,8041,44,-45,-13
0.398584,17,1671,8066,38,-84,-26
0.398723,-6,1685,8145,44,-45,-13
0.398863,-3,1667,8090,75,-109,-70
0.399002,30,1705,8083,38,-52,62
0.399141,4,1679,8103,38,-135,-108
0.399281,-9,1720,8089,38,-20,12
0.39942,20,1742,8105,25,-71,6
0.399559,1,1718,8117,69,-84,-45
0.399699,11,1683,8057,6,-58,-1
0.399838,6,1720,8018,75,-84,-51
0.399977,-40,1755,8098,6,-52,25
0.400116,-26,1721,8089,75,-116,-70
0.400256,-11,1727,8078,31,-84,-13
0.400395,14,1732,8083,44,-65,-26
0.400534,62,1761,8073,50,-26,-1
0.400673,36,1761,8041,44,-96,-32
0.400815,39,1744,8094,56,-77,-32
0.400953,25,1675,8006,6,-58,18
0.401093,44,1658,8041,63,-96,-70
0.401231,31,1723,8105,-13,-7,6
0.40137,16,1699,8170,81,-128,-7
0.40151,-16,1720,8095,50,-65,-64
0.401649,12,1700,8031,19,-58,37
0.401788,7,1703,8051,38,-109,-77
0.401927,64,1716,8025,44,-45,6
0.402067,58,1715,8081,25,-77,-32
0.402206,47,1668,8096,94,-128,-7
0.402345,17,1714,8105,6,-39,-32
0.402485,23,1746,8070,63,-77,-20
0.402624,5,1734,8024,75,-65,-26
0.402765,49,1737,8060,19,-77,-26
0.402903,-8,1742,8117,19,-58,12
0.403043,-2,1723,8073,100,-116,-32
0.403181,-31,1740,8018,12,-65,-32
0.40332,57,1735,8071,63,-71,-20
0.40346,17,1702,8105,44,-77,-26
0.403599,56,1721,8106,12,-65,-7
0.403739,36,1699,8119,81,-84,-20
0.403878,33,1706,8110,25,-65,-51
0.404017,12,1728,8066,50,-90,18
0.404157,31,1708,8048,12,-58,-58
0.404296,8,1717,8102,81,-109,-45
0.404435,27,1682,8058,12,-33,18
0.404574,65,1685,8121,44,-77,-51
0.404714,45,1699,8046,44,-71,-7
0.404853,34,1710,8043,69,-90,-13
0.404992,-12,1687,8040,44,-77,-77
0.405132,-13,1728,8093,31,-26,56
0.405272,33,1740,8150,63,-103,-77
0.40541,52,1732,8101,19,-65,-7
0.40555,37,1666,8122,56,-84,-39
0.405689,20,1742,8088,69,-58,-13
0.405828,-12,1674,8113,44,-84,-1
0.405968,19,1726,8111,25,-84,-26
0.406107,46,1737,8098,63,-71,-32
0.406246,43,1736,8081,50,-71,-20
0.406386,23,1643,8128,12,-52,-1
0.406525,-2,1679,8105,75,-90,-45
0.406664,-45,1734,8077,-13,-13,-7
0.406804,-19,1710,8083,81,-122,-64
0.406943,-3,1686,8089,56,-65,37
0.407082,15,1709,8027,31,-58,-51
0.407221,32,1707,8059,38,-103,-39
0.40736,68,1730,8087,6,-33,12
0.4075,4,1756,8087,94,-71,-39
0.407639,1,1713,8078,-6,-65,-7
0.407779,1,1701,8043,69,-65,-26
0.407918,-14,1679,8063,50,-84,-1
0.408057,11,1736,8026,25,-84,-32
0.408197,47,1700,8066,75,-90,-45
0.408336,1,1694,8060,31,-7,-1
0.408475,0,1771,8042,50,-96,-51
0.408615,76,1693,8056,25,-84,18
0.408754,42,1706,8096,63,-52,-13
0.408893,86,1688,8077,69,-109,-39
0.409033,11,1717,8097,19,-58,-7
0.409172,31,1754,8058,37,-52,-32
0.409311,17,1744,8060,44,-65,-39
0.409451,0,1739,8087,37,-71,25
0.40959,-25,1717,8077,75,-90,-26
0.409729,24,1761,8048,31,-33,-58
0.409868,-25,1703,8085,37,-84,6
0.410008,-4,1714,8083,88,-90,-26
0.410147,6,1719,8088,-19,-71,-7
0.410286,-7,1688,8079,63,-58,-51
0.410426,-13,1707,8111,19,-71,6
0.410565,34,1678,8071,81,-71,-51
0.410704,31,1693,8076,12,-71,-7
0.410844,-9,1712,8091,63,-45,-7
0.410983,10,1682,8113,12,-116,-1
0.411122,18,1693,8063,56,-52,-51
0.411262,15,1690,8125,63,-103,-7
0.411401,-71,1748,8114,6,-26,6
0.41154,-6,1695,8113,69,-90,-26
0.41168,45,1671,8055,31,-77,-39
0.411819,-25,1655,8099,50,-52,-7
0.411962,29,1701,8112,12,-71,-13
0.412098,-26,1696,8064,56,-71,-26
0.412237,12,1747,8063,56,-84,-45
0.412376,-91,1691,8120,50,-45,6
0.412515,-7,1705,8055,12,-116,-20
0.412655,45,1706,8058,81,-58,-20
0.412794,11,1666,8062,19,-71,-20
0.412933,10,1700,8112,50,-45,-20
0.413073,-15,1743,8042,44,-103,-20
0.413212,50,1774,8092,56,-58,-39
0.413351,21,1711,8083,-6,-84,12
0.413491,9,1733,8059,81,-71,-26
0.41363,-22,1750,8087,6,-90,-51
0.413769,11,1712,8046,113,-84,-7
0.413909,-21,1707,8096,6,-13,-13
0.414048,21,1672,8106,37,-122,-13
0.414187,-46,1656,8039,37,-52,-7
0.414327,-48,1685,8082,44,-96,-45
0.414466,24,1700,8075,50,-77,-26
0.414605,16,1702,8038,37,-77,-13
0.414745,3,1737,8047,44,-90,-20
0.414884,15,1706,8059,50,-39,-26
0.415023,41,1708,8064,50,-84,-26
0.415162,-6,1684,8120,12,-90,-7
0.415302,25,1693,8089,75,-52,-39
0.415441,2,1709,8098,37,-84,6
0.41558,-1,1758,8129,19,-77,-58
0.41572,-26,1730,8128,50,-77,-7
0.415859,57,1705,8098,25,-71,12
0.415998,50,1680,8082,75,-103,-45
0.416138,9,1753,8103,44,-52,-32
0.416277,-15,1734,8106,-6,-84,6
0.416416,46,1698,8142,88,-71,-32
0.416556,-8,1701,8066,31,-90,-20
0.416695,43,1736,8040,44,-52,-13
0.416834,-22,1727,8080,50,-84,-7
0.416974,34,1724,8081,31,-84,-7
0.417113,18,1731,8061,81,-77,-51
0.417252,-3,1657,8078,-6,-45,-7
0.417392,10,1707,8112,63,-103,-20
0.417531,50,1649,8135,25,-45,-20
0.41767,60,1677,8092,69,-103,-39
0.417809,4,1722,8048,25,-45,-20
0.417949,55,1675,8057,50,-90,-13
0.418088,56,1734,8049,19,-33,-39
0.418227,-34,1779,8090,56,-116,-39
0.418367,-22,1731,8073,81,-65,-7
0.418506,30,1747,8079,0,-71,-26
0.418645,60,1711,8053,50,-71,12
0.418785,28,1680,8092,44,-77,-58
0.418924,26,1715,8062,44,-52,6
0.419063,14,1712,8086,37,-103,-58
0.419203,6,1705,8069,44,-26,-1
0.419342,4,1688,8065,31,-96,-32
0.419481,-3,1734,8078,25,-39,18
0.419621,-26,1697,8060,75,-84,-64
0.41976,23,1678,8080,56,-103,-20
0.419899,41,1762,8124,-19,-52,6
0.420039,0,1732,8081,75,-71,-26
0.420178,32,1704,8058,44,-77,-20
0.420317,6,1759,8025,56,-65,-39
0.420457,22,1679,8085,44,-84,-13
0.420596,7,1776,8095,6,-52,6
0.420735,2,1791,8137,88,-45,-77
0.420874,23,1717,8101,19,-90,12
0.421014,68,1662,8092,63,-65,-26
0.421153,50,1740,8091,44,-77,-39
0.421292,50,1731,8075,44,-65,-32
0.421432,19,1763,8002,37,-71,6
0.421571,-18,1693,8098,12,-71,-39
0.42171,-24,1668,8091,81,-58,6
0.42185,24,1703,8064,37,-45,-26
0.421989,9,1727,8045,31,-84,-32
0.422128,47,1727,8105,50,-77,-7
0.422268,3,1712,8099,56,-71,-32
0.422407,34,1732,8036,63,-116,-26
0.422546,50,1764,8024,6,-33,-13
0.422686,6,1751,8071,75,-103,-45
0.422825,-15,1704,8082,56,-58,18
0.422966,39,1673,8069,37,-52,-51
0.423104,48,1720,8097,56,-84,-7
0.423243,-9,1752,8029,19,-65,-58
0.423384,-39,1673,8080,63,-71,-1
0.423521,18,1756,8088,19,-33,-39
0.423661,5,1730,8116,69,-96,-20
0.4238,28,1630,8135,6,-65,-64
0.423941,78,1712,8096,50,-33,37
0.424079,40,1713,8058,6,-65,6
0.424218,36,1731,7998,94,-109,-70
0.424359,32,1760,8064,-6,-39,-26
0.424497,32,1721,8026,50,-65,-1
0.424636,15,1740,8045,69,-71,-32
0.424775,52,1705,8069,-25,-77,18
0.424915,7,1720,8065,94,-71,-51
0.425055,22,1760,8092,56,-77,-26
0.425193,27,1730,8064,0,-26,-20
0.425335,-24,1734,8080,56,-84,6
0.425472,-4,1742,8119,63,-90,-26
0.425613,-12,1698,8112,38,-84,-39
0.42575,16,1731,8103,19,-33,-7
0.425891,12,1738,8086,56,-96,-26
0.42603,-8,1684,8066,44,-52,-39
0.42617,43,1702,8084,44,-77,12
0.426308,42,1674,8121,31,-52,-45
0.426447,38,1734,8074,50,-90,-20
0.426587,6,1685,8107,31,-45,6
0.426726,-11,1707,8080,44,-96,-20
0.426866,-26,1733,8092,38,-20,-32
0.427004,-36,1724,8086,69,-135,-13
0.427144,10,1751,8091,25,-39,-32
0.427283,77,1716,8109,75,-96,-1
0.427422,18,1688,8071,25,-58,-13
0.427562,38,1716,8074,38,-96,-64
0.427702,24,1733,8092,50,-58,12
0.42784,39,1681,8044,38,-58,-20
0.427979,8,1680,8065,50,-84,-45
0.428119,24,1708,8111,38,-84,6
0.428258,9,1736,8038,69,-52,-51
0.428397,-34,1734,8028,31,-103,-13
0.428537,43,1685,8079,63,-52,-32
0.428676,38,1682,8066,0,-84,6
0.428815,9,1733,8102,63,-52,-32
0.428957,30,1707,8066,50,-109,-51
0.429094,16,1687,8028,50,-71,-7
0.429233,-19,1755,8114,6,-77,-20
0.429373,25,1742,8059,75,-77,-1
0.429512,43,1668,8102,31,-84,-26
0.429651,-35,1690,8121,50,-39,-51
0.429791,-12,1708,8108,0,-71,12
0.429929,10,1703,8031,94,-122,-51
0.430069,8,1705,8017,0,-39,12
0.430208,-6,1739,8065,63,-58,-26
0.430349,16,1725,8094,50,-90,-39
0.430488,53,1723,8122,31,-65,18
0.430627,-16,1674,8115,38,-90,-58
0.430768,20,1693,8054,75,-65,-13
0.430908,-4,1737,8093,-25,-39,-13
0.431045,37,1748,8074,100,-109,-20
0.431184,-5,1706,8071,-13,-39,-13
0.431323,25,1665,8095,81,-65,-1
0.431463,17,1716,8055,31,-96,-77
0.431603,20,1687,8064,50,-26,31
0.431741,14,1677,8081,19,-58,-51
0.43188,50,1738,8090,69,-90,12
0.432021,-11,1692,8112,31,-58,-58
0.432159,-44,1712,8090,-6,-71,25
0.432298,-11,1763,8067,107,-84,-70
0.432439,30,1696,8072,-25,-45,31
0.432577,-15,1655,8111,69,-71,-70
0.432716,-46,1744,8091,12,-71,18
0.432857,-35,1704,8047,81,-45,-13
0.432995,-26,1728,8003,12,-116,-58
0.433134,8,1730,8098,56,-33,12
0.433275,58,1734,8092,19,-65,-13
0.433413,-56,1718,8109,75,-77,-32
0.433552,-20,1715,8119,19,-52,-7
0.433691,-12,1726,8114,56,-90,-39
0.433832,-31,1670,8122,19,-58,6
0.43397,13,1665,8112,69,-96,-58
0.434111,-16,1701,8066,25,-39,-7
0.434251,14,1745,8081,44,-71,-13
0.434388,13,1710,8088,19,-65,12
0.434529,1,1679,8019,63,-77,-64
0.434667,37,1698,8050,44,-103,-20
0.434807,6,1682,8094,56,-45,-20
0.434945,-1,1712,8105,12,-65,6
0.435085,-3,1688,8160,56,-90,-32
0.435225,-38,1746,8092,31,-52,-26
0.435365,10,1752,8049,50,-77,-20
0.435503,2,1688,8131,31,-45,-20
0.435642,16,1706,8082,94,-77,-45
0.435781,18,1738,8034,31,-77,-26
0.435921,-12,1724,8058,-19,-33,-1
0.436061,12,1702,8060,94,-109,-45
0.436199,14,1732,8107,31,-33,-7
0.436339,32,1699,8075,50,-109,-20
0.436478,32,1732,8101,38,-7,-13
0.436617,5,1740,8039,88,-128,-39
0.436756,27,1762,8050,0,-58,-7
0.436896,38,1718,8048,50,-90,-32
0.437035,16,1695,8034,38,-65,-45
0.437175,21,1721,8040,56,-58,25
0.437314,-37,1702,8118,38,-84,-26
0.437454,-30,1705,8083,38,-77,-32
0.437594,8,1741,8091,56,-77,-45
0.437732,15,1767,8127,12,-52,-7
0.437872,65,1692,8062,81,-96,6
0.43801,137,1712,8022,44,-58,-45
0.43815,88,1729,8026,19,-77,-26
0.43829,72,1751,8053,63,-20,50
0.43843,63,1704,8036,25,-109,-96
0.438568,40,1775,8061,50,-71,-26
0.438708,0,1718,8109,6,-45,6
0.438846,-56,1686,8119,69,-65,-39
0.438986,0,1722,8111,6,-58,-13
0.439125,-54,1689,8096,75,-84,-32
0.439264,28,1713,8097,50,-84,-32
0.439404,-55,1717,8126,44,-84,-13
0.439543,-26,1704,8132,19,-52,-7
0.439682,17,1761,8107,56,-90,-45
0.439822,12,1752,8081,81,-65,-39
0.439961,27,1732,8046,-6,-77,12
0.4401,20,1701,8086,94,-96,-20
0.44024,-2,1663,8096,12,-7,-32
0.44038,-9,1687,8115,75,-128,-26
0.440518,19,1687,8094,25,-26,-20
0.440658,35,1705,8111,44,-96,-13
0.440797,-5,1722,8117,38,-71,-32
0.440936,13,1715,8144,50,-45,-1
0.441075,17,1711,8133,44,-90,-64
0.441215,46,1691,8083,25,-77,-1
0.441354,-4,1689,8109,63,-71,-7
0.441493,35,1719,8044,63,-90,-45
0.441634,34,1730,8076,38,-71,-20
0.441772,-28,1707,8139,6,-39,-20
0.441911,69,1692,8089,56,-77,6
0.442051,11,1717,8073,38,-65,-51
0.44219,-44,1709,8111,63,-58,-7
0.44233,-23,1745,8061,44,-103,-58
0.442469,-8,1726,8065,12,-45,18
0.442608,4,1749,8086,63,-65,-39
0.442748,2,1691,8115,38,-65,-7
0.442887,-2,1694,8097,38,-116,-45
0.443026,10,1690,8077,44,-20,-1
0.443165,77,1741,8037,63,-90,-39
0.443305,26,1755,8033,6,-84,6
0.443444,-8,1696,8103,107,-71,-51
0.443583,22,1731,8066,12,-71,-7
0.443722,16,1693,8037,44,-65,-1
0.443862,2,1702,8066,37,-122,-70
0.444001,-15,1713,8054,44,-26,18
0.44414,-34,1659,8059,63,-96,-1
0.44428,-12,1702,8069,19,-52,-45
0.444419,13,1701,8130,107,-90,-13
0.444558,-21,1724,8115,12,-65,-13
0.444698,25,1749,8041,19,-52,-20
0.444837,34,1722,8095,69,-103,-26
0.444976,52,1739,8107,88,-52,-7
0.445116,-10,1746,8081,6,-77,-39
0.445255,1,1699,8058,63,-96,-51
0.445394,68,1698,8035,75,-52,25
0.445534,32,1718,8095,12,-39,-26
0.445673,-13,1690,8034,63,-109,-26
0.445812,-11,1717,8087,6,-71,-13
0.445953,-37,1695,8075,56,-71,-32
0.446092,24,1642,8071,44,-33,-7
0.44623,7,1668,8071,44,-96,-20
0.44637,-3,1690,8115,69,-65,-26
0.446509,17,1643,8138,19,-45,-32
0.446648,72,1722,8134,119,-122,-20
0.446787,9,1703,8090,-25,-26,-13
0.44693,-30,1695,8076,81,-109,-58
0.447066,20,1717,8080,12,-45,31
0.447205,3,1715,8083,69,-84,-26
0.447344,-8,1740,8082,56,-58,-70
0.447484,-24,1700,8080,25,-71,18
0.447623,-31,1687,8050,25,-58,-7
0.447763,-22,1730,8043,63,-71,-58
0.447902,7,1685,8036,37,-96,18
0.448041,12,1642,8070,31,-58,-20
0.448181,-20,1706,8071,44,-65,-32
0.44832,16,1701,8080,63,-103,-39
0.44846,33,1682,8048,31,-7,31
0.448598,0,1736,8047,56,-122,-51
0.448738,24,1662,8089,25,-39,6
0.448882,8,1701,8122,50,-71,-51
0.449016,9,1671,8070,6,-77,-26
0.449157,-12,1680,8058,94,-33,-26
0.449295,23,1720,8137,19,-65,12
0.449435,52,1737,8086,44,-58,-20
0.449574,5,1631,8047,19,-39,-51
0.449713,8,1669,8107,100,-116,-7
0.449852,34,1696,8095,-6,-33,-26
0.449992,82,1705,8100,69,-109,-1
0.450131,18,1712,8109,56,-71,-32
0.45027,42,1732,8077,31,-71,-32
0.45041,7,1689,8112,6,-39,18
0.45055,69,1724,8080,94,-103,-64
0.450688,53,1740,8066,25,-58,-7
0.450827,17,1759,8018,25,-45,6
0.450968,-10,1714,8078,94,-84,-58
0.451106,22,1716,8120,12,-58,25
0.451245,31,1712,8058,31,-71,-45
0.451385,5,1699,8049,56,-103,-20
0.451525,33,1758,8070,19,-52,-45
0.451663,51,1683,8092,37,-58,-1
0.451803,12,1700,8073,56,-103,-45
0.451942,-47,1712,8069,12,-26,25
0.452081,-15,1688,8094,75,-96,-51
0.452221,4,1705,8116,50,-65,-45
0.45236,49,1690,8098,0,-45,25
0.452499,56,1742,8092,88,-109,-51
0.45264,55,1723,8077,63,-90,-13
0.452778,44,1742,8101,44,-58,-26
0.452917,42,1675,8061,37,-84,-20
0.453057,-12,1719,8012,25,-58,6
0.453196,-1,1702,8063,69,-77,-64
0.453335,16,1731,8097,19,-52,37
0.453475,-23,1701,8153,56,-103,-64
0.453614,16,1696,8110,63,-58,-7
0.453753,-22,1680,8122,44,-84,-7
0.453892,-35,1667,8120,-6,-39,-32
0.454032,40,1696,8089,94,-96,-26
0.454171,94,1701,8077,12,-58,-13
0.454311,46,1730,8048,69,-109,-20
0.45445,27,1677,8110,56,-52,-26
0.454589,8,1718,8085,-6,-65,-45
0.454728,37,1757,8104,81,-52,12
0.454868,1,1713,8060,0,-116,-39
0.455007,-8,1716,8052,69,-33,-1
0.455146,-28,1696,8065,31,-109,-51
0.455286,9,1665,8124,56,-65,-26
0.455425,20,1720,8119,25,-77,-20
0.455564,17,1719,8140,25,-58,18
0.455703,19,1690,8118,75,-71,-77
0.455844,39,1670,8109,12,-90,-13
0.455982,70,1724,8071,75,-65,-13
0.456121,24,1758,8104,0,-33,-32
0.456261,-2,1715,8167,56,-103,18
0.4564,22,1706,8103,56,-65,-77
0.456539,33,1715,8081,50,-84,12
0.456679,49,1719,8069,37,-52,-20
0.456818,22,1700,8055,37,-96,-26
0.456957,2,1747,8114,56,-52,-45
0.457097,84,1730,8077,56,-116,12
0.457236,14,1716,8109,6,-58,-45
0.457377,15,1717,8114,25,-71,18
0.457515,17,1698,8103,75,-90,-58
0.457654,-16,1704,8103,37,-84,-26
0.457794,-29,1725,8110,37,-58,-13
0.457933,16,1694,8110,56,-45,-7
0.458072,33,1722,8108,12,-71,-13
0.458212,-17,1637,8063,37,-96,-32
0.458351,23,1754,8088,69,-45,-39
0.45849,36,1750,8070,44,-71,6
0.458629,21,1676,8094,25,-71,-51
0.458768,58,1743,8070,37,-65,-7
0.458908,-40,1738,8145,25,-52,-1
0.459049,-15,1724,8071,81,-109,-70
0.459186,-4,1732,8052,25,-45,25
0.459327,31,1720,8112,12,-45,-45
0.459465,9,1672,8112,44,-71,-13
0.459604,-48,1705,8126,50,-45,-7
0.459744,-13,1744,8083,69,-128,-32
0.459883,-28,1694,8065,25,-13,6
0.460022,4,1671,8064,56,-90,-58
0.460162,10,1706,8164,25,-71,-13
0.460301,6,1695,8042,44,-71,-7
0.46044,50,1695,8062,44,-84,6
0.460581,21,1747,8074,63,-39,-45
0.460719,40,1770,8108,44,-90,-51
0.460858,0,1718,8080,44,-65,18
0.461,-18,1679,8097,56,-96,-39
0.461137,-24,1692,8105,0,-65,-20
0.461276,10,1723,8092,37,-52,-32
0.461416,14,1756,8093,69,-71,-7
0.461556,36,1727,8146,19,-77,-26
0.461694,15,1672,8083,37,-26,6
0.461833,23,1683,8070,31,-103,-32
0.461973,-12,1744,8092,50,-45,-20
0.462112,2,1803,8026,6,-33,-26
0.462252,-14,1713,8054,94,-128,-13
0.462391,48,1680,8123,19,-39,-26
0.46253,53,1767,8046,56,-96,-51
0.462669,15,1721,8057,25,-20,25
0.462809,9,1703,8115,69,-122,-51
0.462948,29,1712,8112,12,-26,-20
0.463087,0,1726,8032,88,-71,-7
0.463227,-10,1746,8080,37,-84,-51
0.463366,10,1653,8057,37,-52,12
0.463505,39,1713,8123,37,-71,-26
0.463645,10,1724,8090,50,-84,-20
0.463784,12,1707,8062,31,-45,-26
0.463923,8,1741,8042,44,-90,-13
0.464063,16,1713,8087,44,-58,-7
0.464202,-7,1707,8076,37,-103,-70
0.464341,11,1735,8086,56,-71,43
0.46448,-10,1683,8088,31,-39,-77
0.46462,-25,1687,8139,56,-109,-26
0.464759,-59,1687,8108,44,-33,6
0.464898,16,1702,8078,37,-96,-58
0.465038,16,1702,8113,25,-52,37
0.465177,-16,1710,8073,50,-71,-39
0.465317,18,1694,8126,75,-109,-64
0.465456,16,1718,8140,0,-39,25
0.465595,-13,1681,8075,100,-65,-45
0.465734,8,1727,8073,31,-77,-7
0.465874,31,1714,8101,31,-65,-26
0.466013,0,1686,8124,63,-71,-7
0.466153,3,1708,8026,6,-77,-32
0.466293,-37,1665,8109,37,-65,6
0.466432,-4,1675,8122,69,-84,-51
0.46657,-6,1680,8073,31,-65,-7
0.466709,8,1700,8091,69,-96,-1
0.466849,-26,1704,8076,12,-26,-39
0.466988,-5,1670,8073,69,-116,-58
0.467127,8,1686,8101,25,-39,31
0.467267,28,1729,8096,50,-90,-45
0.467406,49,1689,8115,44,-65,-26
0.467545,-20,1707,8068,63,-65,-13
0.467685,-17,1743,8036,31,-65,6
0.467825,24,1655,8072,44,-96,-51
0.467964,12,1717,8093,44,-45,-26
0.468104,13,1722,8092,56,-84,-13
0.468244,21,1727,8103,12,-77,-20
0.468381,20,1729,8107,69,-71,-7
0.468521,7,1709,8106,31,-58,-39
0.46866,38,1709,8051,37,-71,-26
0.468799,-17,1707,8020,31,-77,6
0.468939,25,1740,8099,31,-77,-39
0.469079,22,1748,8139,56,-84,-39
0.469217,-19,1671,8126,0,-1,25
0.469358,37,1690,8106,138,-122,-64
0.469497,-14,1721,8095,-38,-45,-13
0.469635,56,1686,8044,94,-84,-1
0.469775,37,1693,8058,12,-58,-45
0.469914,5,1718,8091,44,-45,-20
0.470053,-6,1696,8094,50,-141,-13
0.470193,-13,1735,8034,50,-26,12
0.470332,17,1720,8068,19,-71,-70
0.470471,-4,1692,8065,63,-71,31
0.470612,-24,1753,8056,44,-96,-58
0.470752,-37,1711,8092,12,-58,-7
0.470889,31,1735,8134,75,-84,-7
0.471029,7,1670,8094,12,-84,-51
0.471168,24,1673,8059,44,-52,-45
0.471308,21,1693,8035,12,-90,25
0.471446,-3,1740,8119,63,-26,-58
0.471585,44,1768,8109,44,-116,-13
0.471727,41,1669,8057,56,-71,-45
0.471864,18,1739,8063,12,-33,-7
0.472004,3,1757,8056,25,-45,18
0.472143,27,1739,8074,63,-122,-83
0.472282,14,1667,8080,50,-65,37
0.472422,60,1716,8056,63,-39,-45
0.472561,14,1743,8117,-13,-33,-13
0.4727,44,1692,8055,56,-103,-7
0.47284,29,1699,8089,94,-103,-64
0.472979,-39,1773,8117,-19,-39,37
0.473118,22,1719,8032,50,-77,-39
0.473257,45,1712,8017,69,-77,-20
0.473397,59,1706,8068,19,-77,-26
0.473536,38,1711,8060,44,-45,18
0.473676,76,1694,8079,44,-58,-51
0.473815,-21,1750,8128,50,-135,-20
0.473954,11,1747,8112,56,-7,-13
0.474093,7,1651,8090,19,-135,-32
0.474233,15,1649,8058,75,-58,-39
0.474372,16,1672,8029,25,-33,-13
0.474511,21,1740,8069,56,-90,-7
0.47465,37,1737,8078,44,-84,-32
0.47479,-30,1689,8078,25,-20,6
0.474929,-2,1687,8050,50,-103,-51
0.475069,27,1706,8095,19,-84,6
0.475208,35,1707,8087,81,-45,-39
0.475347,20,1694,8078,-13,-65,12
0.475486,7,1682,8072,94,-116,-39
0.475626,1,1751,8079,6,-26,-20
0.475765,19,1698,8089,25,-103,-13
0.475905,34,1636,8065,44,-77,12
0.476045,25,1685,8103,75,-58,-77
0.476183,25,1715,8082,-6,-90,-7
0.476322,14,1708,8100,69,-52,-1
0.476463,20,1698,8080,50,-65,-32
0.476601,43,1721,8098,25,-84,-51
0.47674,36,1725,8067,69,-65,-1
0.476879,29,1693,8080,25,-103,-32
0.477019,-2,1727,8101,12,-52,-20
0.477158,18,1724,8096,88,-39,-7
0.477297,16,1696,8080,25,-109,-32
0.477437,34,1765,8014,50,-52,-32
0.477576,38,1696,8085,69,-77,12
0.477717,57,1706,8079,-13,-71,-58
0.477855,32,1709,8148,100,-77,-7
0.477995,-11,1744,8070,0,-39,12
0.478133,27,1736,8026,69,-96,-39
0.478275,35,1739,8123,56,-77,-32
0.478412,6,1689,8103,-32,-39,12
0.478551,32,1776,8069,107,-103,-45
0.478691,48,1754,8061,19,-52,-20
0.47883,-34,1662,8056,56,-52,-1
0.478969,34,1721,8051,38,-84,-32
0.479109,39,1697,8113,38,-90,-32
0.479252,-7,1665,8116,25,-45,-26
0.479388,31,1750,8076,75,-45,-20
0.479527,18,1686,8037,63,-71,-32
0.479666,27,1683,8060,-6,-65,6
0.479805,-22,1711,8077,69,-84,-26
0.479945,-46,1712,8127,38,-90,-20
0.480084,26,1730,8096,6,-26,-13
0.480223,-45,1722,8102,75,-116,-45
0.480365,-3,1699,8110,6,-33,12
0.480502,12,1750,8089,75,-65,-45
0.480641,-27,1684,8076,38,-90,-26
0.480781,-6,1700,8136,12,-45,-1
0.48092,13,1712,8070,56,-84,-20
0.481059,11,1721,8099,31,-90,-51
0.481199,25,1774,8108,81,-71,12
0.481338,-6,1723,8074,19,-58,-32
0.481477,-22,1703,8072,81,-109,-26
0.481617,74,1670,8044,12,-58,-32
0.481756,41,1704,8114,44,-52,31
0.481895,41,1724,8053,19,-77,-51
0.482034,31,1686,8101,88,-90,-39
0.482174,12,1682,8136,44,-77,-20
0.482313,0,1660,8079,0,-52,43
0.482452,5,1741,8109,75,-71,-96
0.482592,20,1687,8084,31,-65,37
0.482731,-17,1696,8027,88,-58,-58
0.482869,5,1670,8056,19,-116,-20
0.48301,-27,1724,8079,56,-39,-1
0.483149,69,1732,8069,75,-77,-70
0.483288,2,1672,8088,0,-52,37
0.483428,18,1712,8056,75,-90,-39
0.483567,71,1692,8094,50,-84,-58
0.483706,20,1671,8120,31,-52,50
0.483846,19,1727,8067,50,-71,-83
0.483985,-20,1752,8045,69,-71,31
0.484124,-23,1698,8102,6,-65,-70
0.484264,55,1722,8115,75,-122,12
0.484403,34,1717,8029,25,-39,-13
0.484542,-5,1732,8026,38,-90,-39
0.484681,-28,1732,8039,56,-71,-1
0.484821,12,1706,8137,38,-52,-64
0.48496,-5,1695,8107,25,-96,-7
0.485099,8,1650,8081,75,-71,-26
0.485239,-26,1742,8066,6,-77,-1
0.485378,33,1682,8096,69,-45,-58
0.485517,29,1688,8123,50,-116,-7
0.485656,8,1723,8063,31,-52,-7
0.485796,12,1724,8084,31,-33,-7
0.485936,23,1780,8065,56,-122,-32
0.486074,-44,1739,8102,38,-65,-32
0.486214,13,1747,8082,63,-71,-7
0.486354,59,1744,8053,25,-65,-32
0.486492,66,1691,8102,56,-52,-7
0.486632,-20,1713,8080,44,-96,-51
0.486771,-44,1664,8106,81,-52,18
0.48691,-19,1691,8067,-13,-90,-58
0.487049,-40,1731,8087,63,-77,-13
0.487189,-9,1724,8124,63,-45,-1
0.487328,52,1706,8096,31,-116,-51
0.487469,6,1733,8049,25,-58,12
0.487608,6,1740,8056,107,-77,-64
0.487748,-20,1672,8068,-32,-65,-1
0.487887,-12,1704,8077,81,-39,-13
0.488025,-11,1720,8079,25,-77,-45
0.488164,-5,1681,8087,113,-103,-32
0.488303,7,1703,8051,0,-58,-32
0.488443,42,1706,8058,31,-71,37
0.488582,47,1690,8055,94,-84,-83
0.488722,8,1700,8121,12,-45,-1
0.488861,-6,1708,8086,56,-71,6
0.489,52,1745,8109,19,-84,-45
0.489139,41,1717,8075,69,-26,-13
0.48928,-4,1684,8128,25,-109,-7
0.489418,28,1692,8053,38,-33,-26
0.489558,72,1707,8094,63,-39,-32
0.489697,49,1681,8069,44,-116,12
0.489836,-4,1692,8112,12,-33,-45
0.489976,41,1674,8124,44,-90,-7
0.490115,35,1725,8091,63,-26,-32
0.490254,-34,1735,8092,0,-122,-20
0.490393,61,1721,8127,100,-39,-39
0.490533,38,1735,8060,12,-71,-7
0.490672,1,1698,8057,38,-90,-13
0.490811,44,1714,8140,75,-71,-39
0.490951,-21,1695,8104,-6,-20,-1
0.49109,-30,1728,8126,75,-135,-39
0.491229,-10,1716,8125,31,-39,-20
0.491369,57,1704,8051,44,-96,-39
0.491508,-19,1669,8038,38,-26,6
0.491647,6,1706,8087,38,-84,-26
0.491787,11,1672,8090,38,-58,12
0.491927,46,1742,8062,94,-109,-58
0.492065,41,1687,8074,6,-39,-1
0.492205,8,1685,8105,63,-84,-45
0.492344,19,1713,8112,0,-90,25
0.492483,-19,1704,8063,81,-45,-51
0.492623,20,1724,8110,69,-71,-26
0.492762,-10,1725,8116,25,-71,-26
0.492901,-33,1718,8135,25,-71,6
0.49304,33,1734,8107,56,-103,-32
0.49318,-42,1741,8048,38,-52,-32
0.493319,-17,1703,8059,12,-77,12
0.493458,24,1749,8071,75,-90,-51
0.493598,66,1716,8077,31,-45,-1
0.493737,-5,1740,8070,69,-96,-51
0.493876,68,1749,8104,12,-26,25
0.494016,48,1718,8073,56,-103,-70
0.494155,-2,1754,8090,81,-109,-7
0.494294,7,1733,8064,0,6,25
0.494434,39,1712,8119,63,-116,-58
0.494573,-3,1726,8160,69,-77,-26
0.494712,-21,1731,8097,25,-39,31
0.494851,-7,1706,8079,75,-90,-51
0.494991,37,1717,8084,6,-71,-20
0.49513,78,1663,8105,50,-96,-13
0.495269,47,1707,8132,38,-45,-7
0.495409,12,1698,8119,63,-77,-20
0.495548,38,1709,8058,6,-84,-26
0.495687,28,1730,8104,94,-71,-26
0.495828,-9,1718,8163,6,-45,-7
0.495966,41,1746,8078,50,-58,-39
0.496105,51,1709,8071,31,-77,-32
0.496245,16,1708,8103,63,-71,6
0.496384,4,1721,8075,19,-84,-39
0.496523,58,1689,8024,88,-65,-7
0.496662,35,1690,8058,12,-33,-26
0.496802,45,1744,8083,63,-135,-51
0.496941,-13,1699,8070,-13,-58,25
0.49708,-27,1677,8038,44,-58,-13
0.49722,-15,1659,8063,44,-77,-32
0.49736,45,1679,8077,69,-65,-39
0.497498,24,1730,8104,31,-77,12
0.497639,41,1718,8088,38,-96,-20
0.497777,27,1722,8117,50,-52,-58
0.497918,-28,1735,8081,25,-39,37
0.498056,-29,1719,8052,81,-96,-58
0.498195,35,1682,8072,12,-65,-20
0.498335,2,1698,8079,50,-58,6
0.498474,16,1661,8128,6,-45,-13
0.498613,23,1687,8127,88,-96,-45
0.498752,47,1722,8076,38,-52,-32
0.498892,6,1694,8070,63,-96,-1
0.499031,25,1688,8055,38,-45,-32
0.49917,23,1726,8102,31,-96,-26
0.499309,8,1710,8114,12,-45,-20
0.499449,42,1706,8051,69,-90,-32
0.499588,29,1740,8046,25,-45,-32
0.499727,68,1680,8073,44,-77,-7
0.499867,27,1651,8067,44,-65,-20
0.500006,45,1706,8063,56,-96,-32
0.500145,23,1749,8059,19,-52,31
0.500285,26,1703,8069,50,-90,-96
0.500424,40,1730,8077,50,-65,6
0.500563,11,1712,8044,38,-58,6
0.500703,-3,1726,8026,12,-122,-51
0.500842,50,1715,8077,56,-13,-1
0.500981,61,1721,8101,50,-90,-20
0.501121,-22,1720,8133,44,-77,-26
0.50126,-38,1684,8078,12,-58,-26
0.501399,32,1722,8023,63,-77,-1
0.501539,12,1702,8084,56,-39,-45
0.501678,-11,1750,8089,19,-71,25
0.501818,2,1730,8036,56,-90,-51
0.501956,-42,1669,8078,38,-71,-7
0.502096,-49,1757,8048,25,-71,-20
0.502235,19,1719,8060,31,-65,-20
0.502374,23,1745,8087,63,-84,-51
0.502514,48,1765,8062,44,-71,18
0.502653,3,1727,8099,50,-90,-51
0.502792,14,1741,8031,19,-65,-13
0.502932,-16,1735,8028,38,-39,18
0.503071,-20,1696,8084,69,-90,-70
0.50321,-16,1699,8023,50,-77,6
0.50335,4,1746,8015,44,-103,-51
0.503489,18,1654,8056,56,-13,18
0.503628,3,1671,8026,31,-96,-45
0.503768,29,1678,8026,56,-71,-32
0.503907,37,1700,8031,50,-65,-7
0.504046,69,1728,8052,31,-84,-32
0.504186,-13,1715,8062,31,-65,-1
0.504325,-24,1710,8135,63,-71,-20
0.504464,25,1712,8075,63,-71,-32
0.504603,0,1696,8051,44,-84,-39
0.504743,21,1710,8084,25,-58,12
0.504882,57,1757,8063,50,-96,-58
0.505021,8,1714,8071,44,-33,-1
0.505161,21,1644,8090,63,-103,-39
0.5053,11,1682,8038,50,-52,6
0.505439,28,1722,8055,31,-71,-45
0.505582,-23,1707,8053,12,-77,-1
0.505718,-52,1686,8077,69,-109,-51
0.505857,14,1713,8096,25,-20,18
0.505997,18,1698,8091,56,-109,-51
0.506136,-42,1713,8021,44,-58,-20
0.506275,7,1724,8093,38,-65,-1
0.506415,21,1721,8066,44,-84,-51
0.506555,2,1741,8063,12,-33,18
0.506693,30,1726,8052,75,-96,-32
0.506833,4,1732,8065,19,-58,-39
0.506972,0,1665,8085,19,-58,18
0.507111,29,1704,8090,94,-58,-32
0.50725,10,1682,8060,38,-109,-13
0.50739,-3,1739,8096,38,-45,-51
0.507529,-27,1696,8082,38,-33,18
0.507668,57,1686,8056,69,-116,-45
0.507808,28,1700,8036,12,-58,-32
0.507947,12,1682,8036,75,-84,-7
0.508086,-4,1694,8101,12,-33,-20
0.508226,11,1733,8101,56,-109,-39
0.508365,2,1750,8149,50,-52,-7
0.508504,21,1715,8059,50,-90,-45
0.508644,38,1703,8113,50,-26,12
0.508783,60,1699,8088,12,-128,-20
0.508922,6,1738,8074,75,-71,-20
0.509062,-13,1667,8093,31,-52,-51
0.509201,21,1719,8057,31,-52,12
0.50934,-11,1732,8123,56,-84,-51
0.50948,25,1725,8070,75,-84,-13
0.509619,21,1706,8142,19,-58,-26
0.509758,2,1688,8120,0,-77,12
0.509897,24,1701,8057,75,-65,-70
0.510037,12,1687,8085,6,-84,25
0.510176,32,1708,8069,69,-77,-13
0.510316,57,1692,8072,56,-65,-70
0.510455,27,1697,8048,0,-52,37
0.510594,6,1640,8035,94,-90,-83
0.510733,55,1694,8086,-6,-90,18
0.510873,-15,1710,8077,38,-52,-58
0.511012,30,1688,8051,19,-77,12
0.511151,-6,1713,8083,69,-58,-64
0.511293,24,1667,8089,44,-84,6
