Average_IMU_SPS_Hz,7177.733
IMU_Time_sec,Accel_X_raw,Accel_Y_raw,Accel_Z_raw,Gyro_X_raw,Gyro_Y_raw,Gyro_Z_raw
0.0,-25,1660,8106,19,-64,-13
0.000139,24,1672,8088,44,-77,-20
0.000279,8,1638,8088,75,-84,-32
0.000418,19,1640,8050,44,-45,-26
0.000557,44,1664,8066,31,-109,-1
0.000697,36,1683,8064,31,-52,-26
0.000837,11,1692,8061,75,-64,-39
0.000975,-37,1665,8117,44,-77,6
0.001114,-10,1661,8026,12,-33,-26
0.001254,-10,1686,8073,44,-135,-51
0.001399,7,1698,8115,25,-20,31
0.001532,-34,1659,8058,75,-90,-70
0.001671,10,1668,8017,6,-64,18
0.001811,-15,1738,8081,44,-77,-51
0.00195,18,1663,8074,12,-45,-1
0.002089,9,1701,8142,81,-77,-39
0.002229,-7,1669,8092,25,-71,-7
0.002368,39,1668,8092,6,-58,-39
0.002509,57,1688,8082,69,-77,-7
0.002647,-35,1696,8109,19,-58,-20
0.002786,13,1677,8029,56,-109,-64
0.002925,-51,1686,8070,25,-58,-1
0.003065,36,1660,8116,19,-64,-1
0.003204,48,1685,8086,31,-45,-20
0.003343,70,1682,8124,69,-135,-45
0.003483,-28,1694,8073,6,12,12
0.003622,32,1669,8036,88,-154,-58
0.003762,83,1641,8056,25,-13,-7
0.003901,34,1664,8036,37,-122,-32
0.00404,32,1659,8162,63,-39,-1
0.004179,-8,1629,8083,63,-77,-26
0.004319,-4,1689,8098,69,-90,-45
0.004458,11,1695,8064,12,-52,-1
0.004597,5,1654,8076,31,-77,-26
0.004737,28,1681,8135,94,-71,-13
0.004876,81,1693,8120,0,-39,-45
0.005015,34,1671,8084,56,-122,31
0.005154,-24,1679,8049,50,-52,-39
0.005294,51,1679,8103,44,-64,-58
0.005433,34,1690,8093,6,-64,6
0.005573,30,1630,8107,63,-90,-13
0.005712,-6,1633,8094,31,-33,-39
0.005851,23,1664,8065,37,-71,-13
0.005991,8,1630,8043,75,-96,-26
0.00613,41,1667,8088,12,-77,6
0.006269,-30,1659,8055,56,-71,-83
0.006408,-24,1696,8108,19,-45,37
0.006548,26,1703,8111,56,-115,-32
0.006687,70,1651,8130,37,-20,-20
0.006826,68,1692,8084,75,-84,-32
0.006966,-21,1712,8084,6,-45,6
0.007105,-24,1698,8084,56,-115,-76
0.007244,-8,1665,8106,37,-45,50
0.007384,-17,1672,8121,44,-84,-70
0.007523,64,1703,8088,19,-58,-13
0.007662,33,1689,8100,63,-103,-7
0.007801,25,1746,8081,25,-71,-20
0.007941,-25,1674,8124,37,-33,-45
0.00808,-11,1628,8055,63,-115,-7
0.00822,8,1696,8089,37,-20,-20
0.008359,17,1680,8071,19,-90,-20
0.008498,43,1675,8092,63,-39,-20
0.008637,26,1699,8054,37,-109,-13
0.008777,-7,1677,8061,56,-58,-39
0.008916,34,1698,8109,6,-90,18
0.009056,17,1660,8065,63,-58,-51
0.009195,-40,1712,8056,12,-84,-7
0.009335,-20,1686,8119,69,-58,-1
0.009473,-9,1683,8099,37,-84,-51
0.009618,73,1678,8058,56,-84,-7
0.009754,6,1672,8124,12,-39,-26
0.009893,14,1692,8145,37,-84,-45
0.010031,39,1685,8102,12,-45,6
0.01017,28,1675,8103,88,-90,-32
0.010309,-49,1659,8100,63,-71,-13
0.010448,-18,1658,8133,-7,-26,-13
0.010588,8,1679,8077,63,-109,-26
0.010727,58,1678,8075,44,-52,-39
0.010866,-12,1671,8044,63,-84,12
0.011006,35,1710,8071,25,-77,-39
0.011145,-20,1719,8123,81,-71,-45
0.011285,-24,1679,8086,25,-71,6
0.011425,-15,1645,8066,6,-52,-7
0.011563,19,1681,8038,94,-96,-64
0.011702,43,1707,8082,0,-26,50
0.011842,51,1677,8067,119,-122,-76
0.011981,5,1699,8088,6,-52,-20
0.012122,-13,1665,8114,31,-58,-1
0.01226,40,1724,8125,37,-71,-13
0.012399,42,1654,8135,6,-52,-13
0.012538,32,1670,8088,94,-84,-51
0.012678,28,1703,8042,19,-45,-7
0.012818,36,1683,8064,31,-77,-20
0.012957,12,1680,8088,88,-45,6
0.013096,10,1696,8047,12,-96,-76
0.013235,27,1682,8061,6,-26,44
0.013374,21,1690,8050,50,-116,-89
0.013514,-15,1683,8070,37,-39,25
0.013653,24,1672,8108,63,-84,-51
0.013793,14,1735,8110,12,-39,25
0.013932,-18,1675,8050,75,-116,-70
0.014071,58,1650,8061,37,-39,-7
0.01421,29,1717,8103,50,-52,-1
0.01435,18,1700,8063,50,-90,-39
0.014491,6,1712,8089,44,-64,-13
0.014628,28,1677,8082,50,-58,-32
0.014768,-1,1660,8077,56,-96,-32
0.014907,28,1676,8094,19,-33,6
0.015047,-28,1681,8072,56,-103,-70
0.015186,-70,1616,8063,50,-84,6
0.015325,-12,1659,8014,12,-33,-51
0.015464,6,1659,8067,50,-71,31
0.015605,-18,1586,8076,56,-45,-45
0.015743,-19,1663,8046,31,-109,-26
0.015882,1,1671,8085,44,-52,-26
0.016022,44,1669,8050,63,-52,-26
0.016161,1,1623,8068,63,-77,6
0.0163,-14,1666,8131,37,-84,-51
0.01644,22,1727,8110,63,-71,-13
0.016579,69,1674,8125,37,-20,-7
0.016718,-1,1651,8097,37,-103,-39
0.016857,-11,1628,8105,19,-58,-13
0.016997,16,1680,8121,56,-71,-20
0.017136,4,1756,8094,37,-90,-45
0.017275,49,1695,8068,56,-45,25
0.017415,-40,1686,8053,25,-84,-76
0.017554,-35,1649,8066,37,-77,18
0.017693,-39,1666,8086,75,-71,-51
0.017833,12,1666,8127,6,-64,-13
0.017972,-12,1677,8072,69,-52,-1
0.018113,-14,1654,8050,63,-96,-51
0.018251,-33,1699,8047,31,-64,-13
0.018391,8,1690,8078,37,-77,-20
0.018529,21,1681,8131,25,-39,-26
0.018669,-7,1699,8096,31,-90,-13
0.018808,16,1672,8155,81,-84,-20
0.018947,-42,1684,8148,25,-64,-51
0.019087,-38,1701,8070,56,-71,37
0.019226,-4,1675,8095,44,-64,-58
0.019365,-4,1636,8112,37,-71,-7
0.019504,-5,1699,8109,56,-71,-20
0.019645,-31,1682,8094,25,-71,-26
0.019783,32,1640,8081,56,-77,-26
0.019922,10,1635,8075,31,-64,-13
0.020063,18,1684,8104,44,-58,-39
0.020201,56,1651,8073,25,-109,-26
0.02034,-14,1662,8077,75,-64,-7
0.020479,-51,1677,8063,37,-45,-13
0.020619,-46,1680,8116,19,-109,-26
0.020758,-82,1605,8117,56,-58,-58
0.020898,6,1676,8085,25,-90,25
0.021037,0,1692,8075,50,-71,-39
0.021176,5,1623,8068,25,-39,18
0.021317,6,1687,8154,81,-90,-64
0.021456,-5,1707,8086,12,-64,-7
0.021595,-12,1608,8116,69,-109,-26
0.021733,11,1682,8063,37,-33,-39
0.021874,-23,1727,8106,19,-77,12
0.022013,-13,1636,8059,56,-71,-51
0.022151,-18,1669,8115,50,-84,12
0.022291,28,1660,8094,63,-84,-70
0.02243,18,1632,8067,12,-20,31
0.022569,45,1671,8094,75,-96,-64
0.02271,-22,1674,8076,37,-64,6
0.022848,6,1645,8100,44,-45,-39
0.02299,59,1718,8023,12,-84,-7
0.023127,5,1738,8063,44,-84,-7
0.023266,6,1665,8111,25,-33,-45
0.023406,3,1677,8101,37,-77,-1
0.023545,-7,1688,8080,37,-64,-51
0.023684,42,1678,8092,56,-84,-45
0.023823,-1,1722,8072,0,-71,44
0.023963,17,1734,8119,75,-71,-64
0.024102,22,1728,8081,25,-71,-20
0.024243,52,1684,8100,31,-52,-20
0.024381,-14,1675,8119,69,-71,6
0.02452,-2,1697,8120,19,-52,-58
0.024659,71,1685,8075,56,-58,6
0.024803,27,1712,8065,0,-71,18
0.024938,31,1664,8068,75,-58,-64
0.025077,0,1660,8069,25,-116,6
0.025218,-1,1696,8064,25,-7,-45
0.025356,33,1664,8038,75,-84,-39
0.025495,21,1660,8082,12,-90,25
0.025635,14,1709,8107,69,-39,-26
0.025774,34,1726,8060,6,-77,-45
0.025913,30,1724,8119,63,-96,-26
0.026053,72,1682,8095,50,-26,12
0.026192,20,1716,8087,69,-109,-64
0.026331,6,1690,8082,-7,-45,-7
0.026471,24,1740,8051,50,-96,-45
0.02661,-18,1750,8076,50,-45,25
0.026749,4,1718,8094,31,-58,-39
0.026889,-37,1677,8104,63,-77,-7
0.027028,-18,1689,8084,50,-90,-64
0.027167,6,1680,8070,0,-33,50
0.027307,-3,1635,8031,81,-84,-70
0.027446,-20,1726,8016,6,-77,-1
0.027585,-2,1712,8050,69,-52,-32
0.027724,-5,1696,8090,37,-122,-1
0.027864,14,1659,8134,44,-52,-39
0.028003,19,1663,8108,37,-52,-20
0.028142,9,1717,8047,75,-71,-32
0.028282,14,1675,8104,6,-52,-13
0.028421,51,1688,8111,56,-90,-13
0.02856,4,1669,8074,88,-77,-39
0.0287,-2,1668,8095,0,-71,18
0.028839,-28,1683,8098,56,-52,-51
0.028978,29,1705,8101,19,-77,12
0.029118,12,1718,8131,56,-58,-45
0.029257,42,1688,8053,44,-96,-1
0.029396,-17,1715,8124,44,-64,-51
0.029536,39,1676,8070,63,-58,-1
0.029675,55,1672,8067,-13,-77,-13
0.029814,51,1683,8085,88,-64,-45
0.029954,-2,1711,8041,12,-58,-7
0.030094,-4,1672,8054,37,-109,-26
0.030232,-15,1706,8071,50,-52,-13
0.030371,-20,1637,8006,37,-77,-39
0.030511,23,1684,8025,44,-84,-7
0.03065,13,1659,8100,31,-26,-7
0.030789,34,1679,8058,75,-103,-32
0.030928,-5,1701,8063,6,-58,-26
0.031068,21,1704,8095,56,-71,-26
0.031207,-17,1667,8076,44,-64,-1
0.031347,-18,1659,8093,-7,-52,-20
0.031487,20,1722,8066,63,-103,-51
0.031626,37,1724,8044,44,-39,12
0.031765,39,1635,8098,37,-77,-32
0.031904,39,1667,8087,56,-77,-32
0.032044,2,1659,8088,63,-58,-32
0.032182,22,1658,8043,25,-77,37
0.032322,54,1678,8107,56,-52,-76
0.032461,-9,1643,8105,37,-84,-13
0.0326,-29,1678,8068,50,-52,-32
0.032741,4,1711,8138,31,-77,18
0.032879,-21,1686,8157,50,-84,-58
0.033018,-2,1651,8070,31,-33,-13
0.033159,0,1638,8071,50,-122,-26
0.033297,-4,1662,8103,37,-71,-45
0.033436,32,1651,8069,63,-39,-7
0.033576,17,1720,8074,0,-71,6
0.033715,-6,1704,8107,69,-71,-45
0.033855,-7,1686,8036,56,-96,-20
0.033994,-11,1680,8046,6,-58,-13
0.034133,-3,1687,8032,31,-77,-32
0.034272,-15,1718,8080,100,-77,-32
0.034412,-31,1658,8073,-7,-77,-7
0.034551,-33,1703,8078,75,-90,-45
0.034691,-68,1667,8062,6,-45,25
0.03483,8,1622,8067,63,-103,-58
0.034969,11,1655,8085,31,-45,-26
0.035108,-21,1728,8073,44,-77,-1
0.035248,-33,1705,8058,81,-90,-20
0.035387,-47,1677,8107,-19,-71,-7
0.035526,-15,1711,8101,88,-84,-64
0.035666,39,1659,8082,19,-77,18
0.035805,16,1694,8098,50,-64,-26
0.035944,-3,1661,8154,56,-90,-39
0.036084,17,1643,8107,44,-45,12
0.036223,27,1717,8098,31,-52,-13
0.036362,18,1726,8063,63,-77,-39
0.036501,-18,1702,8045,63,-96,-13
0.036641,-35,1691,8080,25,-58,-20
0.03678,-1,1691,8050,69,-84,6
0.03692,13,1662,8133,12,-52,-45
0.037059,23,1676,8089,81,-84,-13
0.037198,-41,1642,8106,12,-71,-32
0.037337,-4,1698,8078,88,-84,-7
0.037477,16,1698,8126,-7,-33,-20
0.037616,-23,1637,8141,81,-122,-51
0.037755,8,1693,8106,31,-84,18
0.037894,-38,1683,8090,31,-64,-64
0.038034,25,1713,8119,56,-52,18
0.038173,15,1715,8090,37,-64,-39
0.038312,5,1628,8088,56,-122,-20
0.038452,24,1653,8020,31,-33,-13
0.038591,19,1641,8082,69,-96,-45
0.038731,-18,1669,8146,6,-90,12
0.03887,36,1704,8077,75,-45,-13
0.039009,-8,1676,8094,25,-90,-51
0.039149,-6,1705,8114,44,-33,-7
0.039288,39,1658,8083,50,-116,-26
0.039431,13,1682,8058,19,-33,-1
0.039568,1,1672,8055,50,-52,-26
0.039709,43,1679,8068,31,-84,-39
0.039847,-22,1658,8122,63,-58,6
0.039984,62,1697,8133,44,-90,-45
0.040126,0,1667,8117,44,-71,-13
0.040263,24,1669,8102,6,-52,18
0.040402,17,1682,8071,37,-64,-45
0.040542,5,1669,8077,69,-90,-13
0.040681,-16,1676,8095,44,-45,-32
0.04082,-31,1685,8113,12,-58,-1
0.040959,-33,1659,8100,69,-103,-39
0.041099,-28,1745,8068,56,-45,-32
0.041238,64,1700,8046,0,-71,18
0.041378,36,1647,8084,50,-71,-32
0.041517,27,1743,8054,50,-39,-20
0.041656,50,1700,8066,50,-109,-32
0.041795,3,1697,8059,50,-45,-7
0.041935,-6,1727,8075,19,-64,-13
0.042075,-18,1706,8095,56,-52,-51
0.042214,-13,1682,8121,50,-90,-20
0.042354,-31,1667,8111,50,-71,-1
0.042492,12,1677,8072,31,-52,-51
0.042631,2,1680,8084,63,-77,-20
0.042771,-18,1665,8112,44,-77,-39
0.042911,1,1678,8065,31,-90,6
0.043049,-45,1697,8059,37,-39,-39
0.043189,-40,1668,8062,6,-77,-1
0.043328,16,1729,8116,113,-96,-45
0.043468,7,1708,8097,37,-20,6
0.043608,-11,1654,8130,19,-90,-70
0.043746,37,1659,8129,69,-71,-20
0.043885,21,1730,8092,-7,-45,12
0.044025,-27,1697,8043,75,-103,-51
0.044164,-31,1684,8053,50,-71,-1
0.044304,22,1711,8120,19,-33,-7
0.044443,42,1666,8114,63,-84,-45
0.044583,5,1718,8148,31,-52,-20
0.044721,22,1700,8039,56,-84,-1
0.044861,9,1628,8114,69,-71,-70
0.045001,34,1662,8077,31,-71,18
0.045139,14,1679,8091,69,-64,-20
0.045278,14,1665,8059,50,-71,-32
0.045418,43,1640,8106,25,-52,-32
0.045557,12,1674,8065,37,-84,6
0.045697,-10,1678,8059,44,-52,-45
0.045836,110,1672,8069,44,-77,-1
0.045976,86,1656,8057,44,-103,-45
0.046114,2,1705,8091,50,-33,-7
0.046254,36,1709,8113,88,-103,-26
0.046396,20,1655,8132,19,-58,-7
0.046533,32,1726,8149,37,-71,-26
0.046672,-6,1670,8107,44,-77,-1
0.046811,-3,1694,8131,25,-39,-51
0.046951,8,1625,8071,56,-45,-1
0.04709,23,1678,8030,56,-96,-32
0.047229,12,1682,8126,75,-84,6
0.047369,-10,1733,8099,25,-64,-32
0.047508,-2,1674,8044,50,-90,-20
0.047647,65,1686,8054,44,-77,-32
0.047786,24,1708,8090,56,-45,12
0.047926,-17,1710,8082,50,-116,-70
0.048065,53,1700,8096,56,-45,18
0.048204,-20,1719,8127,6,-64,-32
0.048344,-36,1673,8119,88,-64,-13
0.048483,5,1680,8112,-7,-103,-32
0.048622,4,1711,8066,81,-71,-32
0.048762,32,1659,8094,19,-45,-1
0.048901,14,1722,8092,63,-122,-32
0.04904,15,1670,8093,44,-71,-32
0.04918,-15,1663,8093,31,-52,12
0.049319,-39,1669,8070,94,-71,-39
0.049458,-30,1634,8087,6,-84,-13
0.049597,-20,1692,8055,44,-77,-32
0.049737,53,1690,8071,75,-71,-13
0.049876,29,1666,8077,37,-96,-32
0.050016,6,1676,8075,31,-64,-1
0.050155,26,1728,8063,12,-20,-20
0.050294,14,1690,8033,69,-154,-32
0.050433,39,1706,8094,44,-39,-26
0.050573,-5,1719,8115,56,-58,-13
0.050712,54,1722,8070,19,-90,-13
0.050851,-16,1690,8109,63,-77,-32
0.05099,36,1647,8134,37,-64,6
0.05113,0,1700,8108,56,-90,-70
0.051269,64,1727,8152,-7,-64,6
0.051409,21,1675,8144,81,-58,-1
0.051548,31,1630,8074,50,-84,-64
0.051687,40,1691,8079,6,-45,31
0.051827,-18,1720,8097,63,-103,-45
0.051966,5,1710,8082,63,-77,-39
0.052106,-26,1682,8110,0,-58,-1
0.052245,35,1711,8119,75,-39,-7
0.052384,1,1693,8112,31,-109,-39
0.052523,-35,1678,8068,50,-71,-32
0.052662,-50,1684,8104,19,-52,-7
0.052803,-1,1662,8117,75,-64,-32
0.052941,-27,1696,8117,44,-77,-7
0.053081,49,1711,8068,37,-52,-39
0.05322,-12,1671,8108,25,-84,-1
0.053359,41,1698,8062,56,-20,-45
0.053499,-1,1647,8046,44,-84,18
0.053638,-34,1680,8112,25,-84,-39
0.053777,18,1683,8090,50,-96,-45
0.053916,-12,1689,8075,19,-39,6
0.054056,29,1680,8073,56,-90,-20
0.054195,6,1668,8113,37,-39,-7
0.054337,30,1690,8085,19,-84,-26
0.054474,-34,1633,8068,81,-52,-45
0.054613,8,1692,8086,6,-90,12
0.054752,19,1638,8071,44,-45,-64
0.054892,-59,1663,8070,25,-109,-1
0.055031,30,1656,8102,63,-45,-20
0.05517,23,1654,8059,63,-90,-13
0.055311,10,1613,8050,-44,-52,-20
0.055449,-5,1654,8025,125,-84,-32
0.055588,20,1666,8067,44,-84,-26
0.055727,-9,1715,8103,19,-52,-32
0.055867,-39,1710,8079,69,-71,12
0.056006,4,1628,8077,25,-64,-70
0.056145,16,1686,8070,56,-96,18
0.056285,13,1678,8039,44,-52,-58
0.056424,5,1647,8061,37,-64,-1
0.056564,35,1681,8073,31,-58,-1
0.056703,-9,1700,8052,63,-103,-45
0.056842,-14,1675,8067,37,-77,-32
0.056982,-8,1677,8093,50,-84,-20
0.057121,-39,1720,8055,12,-39,-26
0.05726,16,1696,8073,44,-77,25
0.0574,29,1698,8052,31,-84,-70
0.057539,41,1688,8104,50,-90,-13
0.057678,89,1716,8108,50,-58,12
0.057818,11,1658,8039,69,-96,-70
0.057957,-17,1626,8080,25,-52,12
0.058096,-10,1711,8106,25,-90,-32
0.058235,-28,1679,8110,63,-71,18
0.058375,66,1715,8097,50,-71,-58
0.058514,-10,1702,8086,25,-77,-13
0.058653,-31,1651,8062,94,-71,-32
0.058797,10,1640,8109,-13,-71,-20
0.058932,20,1666,8062,69,-58,-13
0.059071,43,1748,8102,19,-84,31
0.059211,72,1737,8071,88,-71,-89
0.05935,-8,1637,8104,12,-122,-13
0.059489,19,1635,8062,63,-13,12
0.059629,13,1677,8129,50,-84,-51
0.059768,42,1681,8081,25,-26,-1
0.059907,-75,1652,8114,63,-103,-58
0.060047,16,1704,8101,63,-84,-1
0.060186,33,1664,8114,31,-58,-13
0.060325,25,1689,8107,25,-64,-13
0.060464,-52,1676,8086,56,-64,-20
0.060604,31,1734,8021,31,-71,-45
0.060743,-34,1674,8040,44,-109,-1
0.060882,6,1696,8079,37,-52,-26
0.061022,29,1720,8106,63,-52,-7
0.061161,-42,1695,8071,44,-96,-70
0.061302,5,1717,8077,44,-84,18
0.06144,35,1724,8093,25,-45,-13
0.06158,-24,1757,8060,81,-109,-58
0.061719,-8,1674,8067,19,-64,6
0.06186,55,1665,8108,50,-39,-45
0.061997,-4,1711,8149,50,-84,6
0.062136,-22,1658,8102,37,-84,-7
0.062276,31,1665,8067,56,-58,-70
0.062415,2,1677,8037,50,-90,-13
0.062554,-4,1705,8084,-7,-33,-1
0.062695,-28,1684,8121,56,-96,-13
0.062833,14,1695,8060,50,-58,-58
0.062975,37,1659,8114,63,-84,-20
0.063111,66,1683,8161,19,-39,-20
0.063251,24,1685,8115,56,-96,-7
0.063391,-12,1718,8073,19,-39,-26
0.06353,-13,1645,8093,44,-71,-13
0.063669,16,1700,8094,6,-90,-39
0.063808,36,1679,8117,44,-77,25
0.063948,12,1660,8090,50,-77,-70
0.064087,-38,1723,8071,37,-33,-1
0.064227,11,1744,8080,25,-109,-26
0.064366,14,1732,8061,37,-71,-13
0.064506,42,1718,8080,37,-64,-32
0.064646,-11,1689,8119,50,-84,-26
0.064783,-28,1690,8112,37,-64,-7
0.064923,-17,1738,8083,37,-90,-58
0.065062,41,1683,8061,44,-33,31
0.065203,-33,1757,8066,63,-96,-51
0.065341,-22,1706,8112,31,-96,-58
0.06548,47,1725,8066,31,-1,18
0.065619,-42,1741,8141,6,-84,-7
0.065759,22,1672,8103,56,-71,-58
0.065898,-45,1670,8100,56,-109,-7
0.066037,-11,1732,8053,19,-45,-32
0.066177,43,1689,8054,75,-77,-1
0.066316,-31,1721,8120,25,-90,-26
0.066455,46,1690,8112,56,-64,-26
0.066594,38,1708,8133,19,-71,-7
0.066734,-14,1660,8091,75,-64,-58
0.066873,-44,1639,8075,31,-64,-1
0.067013,-7,1695,8106,75,-109,-39
0.067152,-1,1676,8065,-7,-52,-1
0.067291,1,1678,8097,69,-77,-26
0.067431,-1,1676,8098,56,-64,-26
0.06757,-29,1687,8071,-7,-103,-39
0.067709,14,1681,8087,44,-39,25
0.067848,-1,1703,8099,69,-71,-70
0.067988,13,1687,8075,19,-71,-20
0.068127,-2,1667,8051,69,-84,-7
0.068266,-9,1687,8046,37,-77,-58
0.068406,-36,1698,8089,6,-71,12
0.068545,21,1707,8080,25,-58,-1
0.068685,23,1664,8094,113,-84,-89
0.068824,22,1674,8092,-13,-64,25
0.068963,21,1728,8076,63,-64,-51
0.069102,-10,1686,8061,25,-77,12
0.069242,-22,1706,8095,37,-90,-45
0.069381,9,1680,8072,69,-58,12
0.06952,8,1703,8112,31,-103,-76
0.06966,-11,1688,8100,31,-58,6
0.069799,-31,1706,8067,63,-64,-20
0.069938,8,1667,8134,50,-84,-26
0.070077,-3,1677,8132,31,-45,-13
0.070217,-34,1682,8119,25,-77,6
0.070356,25,1699,8082,50,-90,-58
0.070495,88,1683,8056,44,-71,12
0.070635,-12,1691,8072,31,-64,-45
0.070774,-2,1662,8102,63,-96,-26
0.070913,7,1678,8122,31,-71,-7
0.071053,-24,1690,8097,44,-84,-7
0.071193,15,1692,8118,75,-71,-32
0.071331,14,1655,8077,0,-52,6
0.071471,-22,1664,8107,37,-71,-32
0.071611,-42,1685,8077,94,-84,-45
0.07175,33,1680,8037,12,-90,6
0.071888,-22,1678,8049,50,-33,-13
0.072028,-37,1647,8114,69,-103,-45
0.072167,24,1680,8126,37,-64,-7
0.072308,34,1675,8085,37,-71,-7
0.072446,-15,1705,8112,56,-71,-20
0.072585,36,1686,8063,37,-77,-13
0.072725,51,1672,8071,6,-26,-45
0.072864,-3,1681,8144,69,-96,-39
0.073004,2,1677,8086,25,-64,18
0.073142,-15,1663,8090,44,-71,-39
0.073282,-11,1674,8036,69,-52,-45
0.073421,-18,1652,8103,44,-71,-1
0.073561,4,1695,8120,50,-64,-26
0.073701,-16,1698,8045,19,-77,-32
0.073839,-20,1653,8054,50,-58,-1
0.073978,28,1671,8067,50,-77,-39
0.074118,29,1679,8076,25,-64,-1
0.074257,17,1654,8067,94,-84,-13
0.074396,-13,1689,8098,-7,-58,-26
0.074536,-19,1683,8116,75,-58,-39
0.074675,10,1699,8020,31,-90,-20
0.074814,-9,1699,8037,12,-84,-13
0.074954,-1,1643,8093,100,-96,-58
0.075093,-32,1648,8074,6,-26,37
0.075232,-10,1687,8041,56,-77,-70
0.075372,3,1709,8032,37,-77,6
0.075511,30,1662,8089,69,-90,-26
0.07565,30,1667,8094,19,-58,-13
0.07579,-16,1687,8086,50,-64,-20
0.075929,-15,1662,8107,56,-77,-51
0.076068,-7,1624,8095,63,-109,-26
0.076208,-36,1631,8077,-7,-33,6
0.076347,17,1690,8062,69,-96,-45
0.076486,39,1681,8060,31,-52,-7
0.076626,3,1708,8078,75,-109,-32
0.076769,-13,1674,8111,-7,-33,-7
0.076904,65,1657,8120,81,-122,-58
0.077044,-17,1676,8115,37,-33,-1
0.077183,18,1661,8081,31,-64,12
0.077322,-8,1670,8064,50,-71,-51
0.077461,47,1690,8091,50,-116,-7
0.077601,22,1635,8061,69,-45,-13
0.07774,21,1691,8078,12,-77,-13
0.07788,26,1680,8086,50,-90,-45
0.078019,-32,1687,8105,56,-64,12
0.078158,-36,1664,8077,25,-58,-51
0.078297,-8,1678,8086,75,-71,25
0.078437,-16,1692,8097,37,-71,-45
0.078576,5,1672,8111,25,-58,-32
0.078715,10,1690,8131,37,-103,-26
0.078855,-6,1678,8076,63,-52,25
0.078994,12,1678,8076,50,-84,-45
0.079133,-45,1723,8080,25,-84,-26
0.079273,1,1688,8093,44,-45,-1
0.079414,-23,1689,8089,107,-122,-51
0.079551,-6,1664,8082,-13,-33,-1
0.079691,-3,1677,8017,6,-39,-32
0.07983,8,1638,8053,75,-96,-1
0.079969,5,1691,8098,37,-71,-45
0.080108,9,1718,8105,75,-90,-13
0.080248,3,1684,8139,0,-64,-26
0.080387,-50,1696,8099,75,-64,-39
0.080526,-44,1697,8078,69,-103,-32
0.080666,-5,1697,8090,56,-45,31
0.080805,-23,1680,8113,-13,-84,-32
0.080944,12,1682,8082,69,-77,-32
0.081084,22,1674,8083,44,-52,18
0.081223,26,1610,8076,31,-77,-70
0.081363,48,1695,8029,63,-90,-1
0.081504,38,1689,8152,31,-58,-13
0.081641,2,1678,8109,75,-77,-26
0.081781,9,1718,8071,-7,-45,-39
0.08192,8,1691,8066,69,-90,-20
0.082059,23,1676,8082,25,-52,-20
0.082198,52,1674,8085,63,-96,-39
0.082338,5,1693,8113,56,-45,-32
0.082477,-2,1649,8119,19,-58,18
0.082616,42,1680,8081,37,-109,-51
0.082757,39,1696,8090,50,-58,25
0.082895,-5,1701,8095,31,-64,-51
0.083034,-13,1680,8089,75,-84,-26
0.083174,-9,1669,8101,50,-58,-1
0.083313,53,1695,8091,12,-45,-26
0.083452,-8,1724,8082,75,-64,-1
0.083593,-17,1732,8066,6,-84,-45
0.083731,8,1667,8145,69,-71,6
0.08387,16,1705,8058,19,-64,-39
0.08401,32,1699,8047,81,-109,-7
0.084149,17,1629,8071,25,-52,-26
0.084288,11,1684,8083,37,-58,-7
0.084428,-20,1686,8066,37,-71,-13
0.084567,-60,1676,8094,63,-71,-76
0.084706,22,1646,8082,44,-103,-20
0.084845,28,1684,8061,0,-20,12
0.084985,12,1631,8042,107,-103,-51
0.085124,-24,1679,8069,-19,-45,6
0.085265,38,1696,7998,88,-115,-58
0.085403,17,1690,8064,31,-45,-13
0.085542,-4,1711,8087,31,-71,12
0.085681,1,1665,8092,44,-84,-70
0.085821,-29,1672,8050,56,-77,-20
0.08596,-5,1638,8073,31,-71,-7
0.086099,-9,1667,8080,31,-84,-26
0.086239,74,1723,8124,75,-77,-20
0.086378,14,1676,8088,-7,-58,-13
0.086517,67,1704,8154,56,-64,-7
0.086657,13,1728,8127,50,-52,-64
0.086796,-45,1708,8112,69,-103,-13
0.086935,0,1683,8138,31,-39,6
0.087075,-42,1658,8159,44,-115,-45
0.087214,-50,1689,8084,56,-45,-26
0.087353,-12,1693,8080,19,-39,18
0.087493,16,1704,8104,69,-96,-64
0.087632,-14,1693,8107,63,-84,12
0.087771,12,1675,8101,19,-103,-45
0.087911,38,1667,8168,63,-39,-20
0.08805,1,1638,8182,6,-58,12
0.088189,0,1644,8103,94,-115,-76
0.088328,-1,1680,8073,6,-45,18
0.088468,14,1692,8099,50,-77,-58
0.088607,-7,1658,8030,69,-52,-7
0.088746,37,1675,8069,-19,-90,-13
0.088886,7,1666,8153,63,-71,-26
0.089026,47,1666,8122,50,-33,-26
0.089164,37,1714,8050,31,-103,-7
0.089303,16,1641,8090,50,-64,-32
0.089443,-3,1690,8055,56,-71,-20
0.089582,-29,1659,8122,0,-52,-13
0.089722,-19,1699,8131,94,-96,-20
0.089862,17,1673,8136,6,-52,-20
0.090006,12,1666,8104,63,-103,-45
0.090139,-6,1699,8107,25,-52,6
0.090279,24,1656,8082,69,-58,-51
0.090418,22,1690,8104,37,-96,6
0.090557,3,1700,8102,19,-52,-13
0.090697,1,1674,8076,100,-135,-64
0.090836,16,1699,8106,31,-26,6
0.090975,55,1666,8067,50,-77,-32
0.091115,34,1689,8057,37,-45,-20
0.091255,10,1716,8080,75,-115,-45
0.091397,-1,1687,8088,12,-26,-7
0.091534,-10,1665,8075,37,-84,-26
0.091673,-10,1703,8096,81,-103,-20
0.091813,28,1685,8083,-13,-52,-13
0.091951,54,1706,8060,63,-71,-26
0.09209,46,1780,8063,69,-58,-51
0.092229,52,1696,8064,19,-90,6
0.092369,45,1721,8096,37,-52,-45
0.092508,7,1738,8116,63,-84,-1
0.092647,-11,1699,8102,19,-33,-39
0.092787,14,1706,8110,88,-147,-26
0.092926,-20,1667,8069,-7,-26,25
0.093065,-10,1677,8051,69,-77,-39
0.093205,0,1678,8083,12,-71,-39
0.093344,44,1674,8056,69,-71,-13
0.093483,-14,1684,8066,31,-77,-13
0.093622,2,1722,8018,19,-58,18
0.093762,7,1651,8092,50,-71,-89
0.093901,55,1669,8109,63,-84,25
0.09404,14,1682,8064,12,-77,-51
0.09418,33,1705,8071,56,-84,-7
0.094319,14,1708,8105,25,-52,-26
0.094458,34,1687,8094,56,-96,-32
0.094598,-35,1646,8137,31,-33,12
0.094737,1,1701,8090,63,-115,-58
0.094876,-8,1663,8112,12,-45,25
0.095016,-60,1698,8114,69,-77,-26
0.095155,-2,1677,8086,63,-58,-20
0.095294,60,1710,8032,37,-90,-32
0.095434,1,1737,8040,37,-77,-32
0.095573,24,1711,8069,12,-39,-1
0.095712,5,1650,8068,63,-77,-26
0.095852,-18,1633,8041,19,-45,-13
0.095991,18,1696,8068,56,-103,-32
0.09613,-1,1640,8083,50,-84,-26
0.09627,29,1692,8068,31,-64,-7
0.096409,40,1666,8083,31,-45,-32
0.096548,-27,1701,8080,56,-58,6
0.096688,-36,1704,8063,12,-96,-32
0.096827,16,1635,8089,75,-64,-20
0.096966,-25,1714,8058,50,-52,-13
0.097105,5,1687,8133,12,-103,-20
0.097245,12,1698,8185,88,-71,-39
0.097384,-18,1640,8127,6,-52,-1
0.097523,21,1691,8107,81,-109,-58
0.097663,2,1658,8102,19,-52,-1
0.097802,10,1710,8050,37,-64,-1
0.097941,-29,1663,8085,63,-103,-58
0.098081,-32,1702,8024,56,-58,6
0.09822,1,1702,8095,37,-45,-26
0.098359,-23,1677,8045,31,-90,-7
0.098499,-37,1676,8081,31,-26,-32
0.098638,50,1679,8114,56,-115,-32
0.098777,34,1668,8076,19,-58,6
0.098917,3,1656,8081,44,-71,-45
0.099056,30,1665,8058,63,-77,-26
0.099195,19,1702,8073,19,-64,-7
0.099335,12,1708,8081,50,-84,-20
0.099474,34,1671,8080,50,-58,-32
0.099613,42,1689,8058,63,-77,-1
0.099753,33,1686,8021,31,-64,-39
0.099892,-29,1657,8070,56,-77,-26
0.100031,44,1637,8075,50,-33,-13
0.100171,40,1675,8109,31,-122,-32
0.10031,12,1647,8063,44,-64,-13
0.100449,10,1667,8058,56,-64,-39
0.100589,27,1686,8130,31,-45,18
0.100728,39,1673,8062,44,-77,-45
0.100867,6,1724,8056,56,-84,-39
0.101006,37,1740,8047,69,-52,-7
0.101146,0,1708,8081,19,-96,-39
0.101285,-66,1674,8051,50,-45,-1
0.101424,-49,1663,8096,12,-71,-26
0.101564,26,1710,8089,75,-58,-13
0.101703,-40,1704,8105,12,-103,-64
0.101842,-25,1717,8113,50,-45,25
0.101982,31,1672,8093,56,-77,-51
0.102121,-20,1747,8081,44,-71,-1
0.102262,6,1670,8064,50,-58,-39
0.1024,25,1654,8130,50,-122,-7
0.102539,17,1669,8050,19,-26,-26
0.102678,-14,1657,8103,69,-90,-51
0.102818,25,1638,8099,12,-52,-1
0.102957,-7,1747,8120,69,-103,-7
0.103096,6,1717,8115,44,-90,-45
0.103236,-18,1648,8096,37,-52,-7
0.103375,-23,1692,8132,31,-71,-7
0.103514,10,1710,8093,63,-71,-20
0.103654,-5,1665,8090,31,-90,-45
0.103793,-80,1677,8103,44,-71,-13
0.103932,-21,1672,8046,19,-90,-20
0.104071,-21,1657,8042,50,-71,-7
0.104211,7,1633,8082,63,-103,-39
0.10435,77,1637,8097,44,-52,-20
0.104489,-31,1659,8116,25,-64,-7
0.104629,-4,1676,8081,25,-58,-13
0.104768,-17,1692,8071,100,-103,-26
0.104907,-12,1663,8118,19,-58,-39
0.105047,-29,1703,8154,31,-77,-13
0.105186,-33,1698,8108,81,-84,-20
0.105325,23,1664,8104,12,-39,-1
0.105465,22,1721,8121,75,-84,-26
0.105604,36,1693,8048,0,-90,-26
0.105743,-17,1641,8080,31,-64,-32
0.105883,-20,1726,8112,69,-84,18
0.106022,43,1724,8102,50,-64,-45
0.106161,40,1700,8106,44,-103,-39
0.106301,21,1670,8099,19,-52,-20
0.10644,48,1690,8106,63,-84,-13
0.106579,-2,1690,8124,31,-64,-7
0.106719,-4,1696,8133,31,-71,-39
0.106858,40,1681,8097,37,-84,-7
0.106998,8,1684,8093,75,-96,-64
0.107136,-4,1724,8085,31,-1,18
0.107276,-11,1676,8115,69,-122,-39
0.107415,-34,1727,8065,44,-71,-20
0.107554,-4,1699,8097,37,-77,-13
0.107694,53,1738,8108,50,-84,-26
0.107833,19,1715,8089,50,-45,-7
0.107974,11,1627,8113,25,-96,-39
0.108112,-11,1631,8097,56,-39,18
0.108251,21,1660,8112,25,-103,-70
0.108391,-30,1704,8071,44,-39,37
0.10853,6,1737,8055,50,-71,-51
0.108671,0,1634,8081,44,-33,-13
0.108808,11,1647,8120,44,-122,-64
0.108948,-10,1694,8097,25,-26,12
0.109088,-19,1721,8082,50,-64,-32
0.109226,12,1667,8084,31,-77,18
0.109366,14,1695,8102,19,-58,-39
0.109505,-59,1711,8045,94,-96,-39
0.109644,-10,1680,8046,19,-58,12
0.109784,31,1672,8078,69,-77,-58
0.109923,-18,1691,8117,12,-71,-13
0.110062,11,1715,8090,37,-45,-13
0.110202,64,1698,8081,50,-58,-1
0.110341,36,1703,8120,37,-90,-58
0.11048,0,1645,8123,63,-45,18
0.11062,63,1694,8046,44,-116,-70
0.110759,-2,1682,8107,19,-33,6
0.110898,-27,1633,8084,63,-77,-20
0.111037,-32,1662,8085,25,-64,-13
0.111177,-33,1695,8098,50,-84,-20
0.111316,-10,1699,8101,37,-90,-45
0.111456,-25,1659,8110,56,-52,-26
0.111595,0,1671,8091,12,-71,12
0.111735,-10,1709,8063,50,-58,-7
0.111873,31,1649,8097,63,-84,-70
0.112013,48,1689,8093,-19,-26,37
0.112152,-2,1706,8124,94,-147,-64
0.112292,-3,1664,8067,19,-26,-20
0.112431,-20,1699,8113,37,-58,12
0.11257,25,1614,8095,44,-116,-64
0.112711,6,1713,8088,37,-58,31
0.112849,4,1691,8053,50,-64,-70
0.112988,2,1663,8054,50,-84,25
0.113127,-14,1626,8084,31,-45,-64
0.113267,-5,1666,8099,75,-77,6
0.113406,-27,1674,8038,-19,-77,-13
0.113547,-8,1656,8048,88,-64,-45
0.113684,54,1636,8097,31,-58,6
0.113824,-20,1654,8107,63,-64,-39
0.113963,51,1716,8076,37,-84,-51
0.114103,17,1691,8036,31,-71,-20
0.114242,66,1689,8046,37,-39,-1
0.114381,4,1684,8070,75,-109,-13
0.11452,82,1657,8042,12,-58,-51
0.11466,21,1668,8053,25,-84,-1
0.114799,15,1689,8091,75,-33,-7
0.11494,21,1694,8055,56,-103,-51
0.115078,-18,1655,8090,25,-58,-1
0.115217,-18,1634,8077,6,-58,-1
0.115356,-23,1645,8116,100,-109,-83
0.115497,98,1681,8083,6,-7,37
0.115635,77,1632,8092,12,-116,-45
0.115774,-8,1702,8071,88,-77,-32
0.115914,24,1678,8086,6,-52,25
0.116053,23,1664,8120,44,-84,-76
0.116193,23,1696,8080,37,-45,12
0.116333,18,1676,8082,31,-52,-26
0.116471,-6,1697,8103,75,-109,-39
0.11661,-22,1637,8105,-7,-58,6
0.116749,36,1656,8046,63,-58,-26
0.116889,-8,1735,8057,19,-96,-20
0.117028,6,1678,8083,94,-52,-39
0.117167,1,1658,8091,0,-96,-7
0.117307,3,1718,8032,125,-39,-51
0.117446,-6,1725,8112,-63,-39,44
0.117585,-5,1652,8125,125,-116,-83
0.117725,-8,1596,8122,19,-52,6
0.117864,35,1673,8077,19,-71,-20
0.118003,-2,1659,8089,63,-77,-45
0.118143,-26,1700,8053,12,-103,-13
0.118282,12,1662,8073,50,-58,-13
0.118421,3,1697,8081,63,-84,-26
0.118561,34,1658,8092,12,-58,-26
0.1187,0,1670,8078,56,-64,-20
0.118839,-12,1700,8090,81,-103,-20
0.118979,12,1656,8083,-13,-71,-26
0.119119,77,1687,8086,107,-84,-1
0.119258,36,1689,8091,37,-77,-32
0.119397,-20,1716,8130,12,-71,-7
0.119536,-27,1677,8101,63,-77,-32
0.119675,-11,1667,8061,37,-45,-20
0.119816,6,1676,8108,63,-103,-13
0.119954,47,1734,8068,6,-39,-1
0.120093,31,1685,8029,63,-96,-45
0.120232,-22,1670,8072,50,-39,-26
0.120372,-50,1625,8103,-13,-71,6
0.120511,2,1676,8134,113,-90,-26
0.120651,-20,1723,8070,-32,-39,-39
0.12079,-5,1662,8067,69,-96,-13
0.120929,-52,1648,8104,25,-71,-26
0.12107,-68,1680,8083,81,-64,-20
0.121208,33,1661,8058,-13,-45,-51
0.121348,-23,1714,8068,63,-90,18
0.121486,-22,1678,8047,37,-84,-32
0.121626,59,1641,8090,44,-64,-32
0.121765,-5,1691,8075,37,-64,-13
0.121905,33,1666,8079,69,-71,-32
0.122045,15,1698,8084,19,-58,6
0.122184,21,1675,8117,25,-71,-26
0.122322,11,1676,8091,63,-128,-45
0.122462,25,1678,8115,44,12,6
0.122601,-36,1718,8088,19,-96,-26
0.12274,-12,1678,8075,50,-52,-32
0.12288,43,1690,8093,56,-84,-32
0.123019,28,1719,8094,44,-64,-13
0.123158,44,1727,8076,31,-64,12
0.123297,6,1686,8158,63,-64,-58
0.123438,-17,1683,8124,37,-77,-7
0.123578,16,1670,8084,56,-103,-26
0.123717,8,1684,8130,12,-20,-7
0.123855,16,1690,8109,25,-90,-32
0.123994,70,1674,8073,75,-39,-7
0.124133,16,1706,8097,50,-96,-51
0.124273,22,1652,8109,19,-58,31
0.124412,0,1662,8102,50,-90,-70
0.124551,-11,1640,8100,25,-52,-7
0.124691,-9,1660,8097,56,-64,-13
0.124831,-20,1665,8084,31,-77,-20
0.124972,2,1689,8094,37,-77,-32
0.12511,22,1704,8118,63,-116,6
0.125248,40,1686,8042,44,-58,-64
0.125387,45,1716,8077,37,-64,-1
0.12553,65,1679,8072,31,-58,-7
0.125668,-4,1611,8051,63,-96,-26
0.125805,45,1633,8053,0,-52,-39
0.125945,53,1684,8076,100,-90,-45
0.126084,-25,1678,8131,-13,-45,12
0.126223,3,1664,8086,75,-109,-76
0.126364,-5,1690,8122,56,-52,12
0.126502,-17,1644,8133,25,-84,-26
0.126641,15,1625,8136,50,-71,-7
0.126781,14,1714,8075,56,-84,-20
0.12692,-50,1728,8110,31,-26,-39
0.127059,6,1662,8060,63,-122,-58
0.127199,15,1681,8051,19,-33,50
0.127338,50,1661,8058,44,-96,-95
0.127477,17,1665,8071,63,-39,18
0.127617,3,1623,8098,63,-96,-20
0.127756,-52,1659,8021,50,-90,-51
0.127895,-22,1729,8042,19,-58,-13
0.128035,-36,1716,8101,69,-71,-1
0.128174,-28,1694,8155,37,-52,-51
0.128313,22,1662,8063,37,-122,-32
0.128453,12,1666,8060,-7,12,18
0.128592,-28,1693,8108,107,-167,-76
0.128731,-14,1666,8128,25,-52,37
0.128871,12,1701,8044,6,-33,-13
0.12901,7,1715,8112,100,-122,-45
0.129149,10,1678,8141,12,-39,-20
0.129289,19,1694,8094,6,-58,-7
0.129428,-14,1673,8067,88,-103,-39
0.129567,22,1688,8080,6,-58,-20
0.129706,8,1667,8079,81,-71,-7
0.129846,22,1712,8082,6,-77,-7
0.129985,61,1676,8089,69,-58,-32
0.130124,6,1702,8128,50,-103,-26
0.130264,37,1674,8116,25,-45,-13
0.130405,-41,1690,8134,75,-103,-39
0.130542,-4,1710,8106,12,-52,25
0.130681,5,1711,8097,56,-84,-64
0.130821,7,1671,8056,50,-39,-13
0.13096,1,1664,8125,19,-90,-26
0.1311,6,1690,8115,44,-77,-39
0.131239,5,1664,8124,50,-71,12
0.131378,-9,1659,8122,44,-52,-32
0.131518,12,1718,8060,0,-77,-13
0.131657,50,1708,8084,81,-71,-51
0.131796,11,1698,8072,25,-71,37
0.131935,-4,1715,8104,31,-52,-83
0.132075,-1,1686,8129,50,-96,-13
0.132214,55,1738,8105,56,-77,18
0.132354,28,1712,8068,31,-77,-39
0.132493,-2,1700,8041,31,-84,-70
0.132632,4,1695,8112,37,-71,18
0.132772,5,1688,8084,25,-58,-1
0.132911,36,1680,8053,44,-84,-45
0.133052,7,1676,8059,56,-39,18
0.133189,17,1641,8081,50,-96,-51
0.133329,-60,1703,8110,37,-71,-20
0.133468,51,1704,8055,31,-45,-32
0.133607,11,1670,8038,50,-84,-1
0.13375,-22,1670,8090,6,-58,-26
0.133887,-60,1676,8055,44,-64,-26
0.134028,50,1697,8090,69,-33,-20
0.134166,29,1717,8073,6,-141,-26
0.134304,-59,1631,8055,88,-13,-20
0.134443,29,1667,8061,-13,-71,-20
0.134582,19,1694,8045,69,-109,-39
0.134722,16,1674,8129,12,-13,-1
0.134861,22,1691,8042,81,-141,-64
0.135,-35,1644,8060,25,-20,-1
0.13514,-36,1669,8070,50,-71,-20
0.135279,-5,1686,8112,56,-90,-58
0.135422,-12,1659,8107,50,-84,12
0.135558,-13,1694,8140,44,-26,-45
0.135697,2,1647,8140,37,-109,-26
0.135836,50,1683,8086,56,-39,-13
0.135976,3,1689,8032,50,-45,-7
0.136115,49,1615,8074,6,-128,-45
0.136255,48,1628,8103,56,-39,6
0.136396,-24,1612,8093,63,-71,-32
0.136533,25,1641,8131,50,-77,-32
0.136675,34,1641,8087,44,-58,-26
0.136812,69,1652,8090,31,-58,-26
0.136951,40,1681,8084,50,-64,-1
0.13709,-54,1640,8091,44,-96,-51
0.13723,56,1704,8065,-19,-45,-1
0.137369,38,1698,8091,88,-90,-39
0.13751,-25,1656,8104,12,-64,12
0.137651,41,1734,8071,44,-58,-58
0.137787,65,1726,8061,69,-90,-39
0.137926,11,1660,8105,25,-33,25
0.138067,22,1638,8126,56,-96,-39
0.138205,11,1705,8094,37,-71,-26
0.138344,4,1694,8118,44,-58,-1
0.138483,-20,1686,8088,75,-135,-58
0.138623,-13,1710,8115,-38,-7,18
0.138762,15,1632,8090,88,-103,-45
0.138904,11,1694,8136,75,-39,-26
0.139041,6,1675,8106,31,-103,-20
0.13918,-27,1693,8114,25,-20,-39
0.13932,-21,1755,8100,44,-115,6
0.139459,-3,1701,8036,37,-39,-20
0.139599,4,1684,8062,56,-58,-13
0.139738,-17,1716,8128,31,-64,-26
0.139878,7,1636,8090,69,-103,-32
0.140016,9,1679,8095,44,-52,-51
0.140156,21,1698,8070,50,-39,44
0.140295,-63,1718,8041,44,-96,-70
0.140434,11,1665,8094,44,-77,12
0.140573,44,1688,8073,44,-71,-13
0.140713,12,1713,8065,81,-128,-39
0.140852,-3,1672,8070,6,-13,-26
0.140991,20,1712,8110,69,-90,-1
0.141131,40,1719,8084,50,-71,-7
0.14127,25,1703,8078,25,-77,-70
0.141409,13,1683,8060,44,-71,31
0.141549,-24,1672,8096,25,-58,-26
0.141688,2,1686,8047,69,-122,-76
0.141827,-25,1698,8106,37,-33,50
0.141967,18,1658,8081,44,-84,-58
0.142106,20,1658,8133,50,-84,-13
0.142245,-1,1655,8111,12,-45,-20
0.142385,66,1667,8083,56,-71,6
0.142524,-4,1654,8067,50,-71,-89
0.142663,-9,1651,8088,25,-64,50
0.142802,53,1679,8024,50,-58,-20
0.142941,25,1657,8056,50,-103,-64
0.143081,32,1684,8127,50,-58,6
0.14322,27,1719,8089,44,-109,-26
0.143359,72,1655,8052,63,-64,-32
0.143499,1,1684,8071,19,-39,25
0.143638,-14,1738,8163,81,-109,-64
0.143778,-11,1691,8148,37,-52,-26
0.143917,-3,1675,8094,25,-71,-7
0.144057,12,1617,8132,25,-58,-1
0.144196,-47,1645,8102,81,-71,-51
0.144335,-6,1690,8118,44,-84,-26
0.144474,37,1676,8080,-7,-20,-13
0.144613,50,1677,8080,63,-96,-1
0.144753,-34,1742,8097,44,-71,-7
0.144892,1,1654,8090,63,-103,-39
0.145031,-3,1620,8096,37,-39,-20
0.145171,12,1693,8110,50,-96,-20
0.14531,-7,1699,8072,63,-52,-32
0.14545,2,1674,8078,19,-64,12
0.145589,-11,1628,8098,75,-103,-39
0.145728,-23,1635,8088,37,-77,-39
0.145867,37,1688,8109,0,-58,31
0.146008,31,1640,8104,100,-64,-64
0.146146,26,1657,8127,50,-90,-7
0.146285,-6,1657,8121,19,-39,12
0.146425,-49,1666,8071,12,-58,-32
0.146564,-41,1696,8087,88,-96,-51
0.146703,37,1688,8082,-13,-33,18
0.146843,-35,1690,8072,69,-103,-26
0.146982,-32,1650,8061,-7,-39,-32
0.147122,-66,1619,8032,88,-84,-7
0.147261,29,1693,8037,63,-71,-45
0.1474,16,1693,8112,-19,-7,6
0.147539,11,1709,8079,69,-103,-7
0.147679,5,1686,8087,50,-64,-45
0.147818,-20,1672,8087,19,-58,-26
0.147957,-31,1644,8106,50,-90,-1
0.148097,-28,1696,8108,63,-71,-20
0.148237,-19,1721,8091,44,-71,-26
0.148375,12,1715,8047,12,-71,-26
0.148515,18,1710,8142,75,-45,-20
0.148654,3,1649,8134,0,-64,-1
0.148793,41,1682,8084,63,-96,-45
0.148933,-23,1719,8128,44,-45,-7
0.149072,4,1701,8134,75,-84,-32
0.149212,5,1677,8087,-13,-58,-20
0.149351,-16,1745,8105,94,-90,-39
0.14949,13,1696,8103,19,-52,6
0.149629,56,1655,8050,31,-45,-7
0.149768,2,1656,8069,63,-109,-45
0.149908,43,1733,8093,50,-58,-26
0.150047,26,1688,8048,69,-77,-1
0.150187,-10,1682,8091,25,-71,-32
0.150326,5,1698,8106,44,-77,-32
0.150465,-16,1700,8078,63,-58,-7
0.150604,22,1697,8059,6,-90,-20
0.150744,39,1696,8147,63,-64,-20
0.150883,7,1688,8103,69,-52,-45
0.151022,30,1727,8042,6,-90,-1
0.151162,53,1709,8069,56,-52,-32
0.151301,73,1698,8093,44,-109,-26
0.15144,-25,1660,8076,25,-39,-1
0.15158,13,1696,8065,37,-96,-39
0.151719,20,1695,8052,56,-77,6
0.151858,5,1650,8124,63,-58,-51
0.151998,-16,1697,8058,31,-84,-20
0.152137,45,1710,8084,19,-58,12
0.152276,54,1674,8084,81,-90,-32
0.152415,-5,1655,8098,6,-58,-20
0.152555,-7,1636,8070,56,-90,-26
0.152694,-17,1665,8065,50,-90,-13
0.152834,13,1707,8092,25,-45,-7
0.152973,35,1632,8113,50,-90,-32
0.153112,26,1687,8053,31,-64,-7
0.153251,-19,1725,8122,37,-39,-39
0.153394,-23,1653,8142,88,-90,6
0.153531,5,1644,8087,12,-58,-26
0.153669,11,1685,8085,50,-64,-26
0.153809,-19,1654,8070,56,-90,-13
0.153948,-33,1655,8102,31,-96,-26
0.154087,-15,1686,8101,44,-52,-26
0.154227,-4,1702,8081,44,-77,-13
0.154367,7,1701,8043,75,-77,-39
0.154505,16,1671,8022,31,-71,6
0.154644,71,1682,8067,56,-77,-45
0.154784,5,1667,8061,-7,-45,12
0.154923,-72,1716,8070,88,-103,-39
0.155062,-54,1674,8048,50,-58,-32
0.155202,24,1721,8042,50,-64,12
0.155341,39,1644,8064,56,-77,-51
0.15548,-23,1700,8107,19,-58,-13
0.15562,-29,1726,8074,44,-77,-26
0.155759,-39,1667,8100,75,-58,-32
0.155899,15,1709,8073,-7,-77,12
0.15604,2,1744,8055,88,-90,-32
0.156178,-1,1646,8082,25,-58,-32
0.156316,-9,1651,8077,12,-20,-1
0.156456,-39,1652,8113,56,-103,-26
0.156595,22,1728,8114,37,-84,-32
0.156734,-8,1749,8115,69,-71,-26
0.156875,30,1658,8086,6,-45,-7
0.157013,36,1666,8104,63,-84,-7
0.157152,27,1681,8083,31,-45,-58
0.157291,-9,1648,8095,44,-122,-13
0.157431,13,1731,8067,12,-7,-1
0.15757,-42,1713,8102,75,-77,-26
0.15771,4,1736,8064,6,-64,-45
0.157849,-6,1710,8067,81,-103,-13
0.157988,-18,1683,8055,44,-45,-26
0.158128,-23,1677,8081,44,-64,-13
0.158267,-12,1666,8086,44,-109,-26
0.158406,-13,1727,8091,50,-33,-1
0.158547,20,1653,8087,31,-116,-20
0.158685,-4,1637,8088,50,-45,-39
0.158824,-22,1644,8076,31,-77,-45
0.158965,100,1642,8070,94,-90,-7
0.159103,56,1725,8037,-32,-45,-7
0.159242,-4,1682,8056,50,-103,-39
0.159382,-5,1659,8072,63,-33,-20
0.159521,30,1662,8114,12,-52,-26
0.15966,11,1716,8085,31,-96,25
0.159802,38,1683,8052,63,-45,-45
0.159939,32,1669,8125,81,-103,-76
0.160078,22,1708,8059,-19,-39,44
0.160217,55,1714,8004,56,-77,-32
0.160357,12,1668,8049,-7,-71,-1
0.160496,-13,1697,8071,138,-90,-32
0.160635,40,1668,8034,-25,-45,-26
0.160775,31,1664,8060,63,-84,-7
0.160914,-14,1712,8081,25,-64,-1
0.161053,-17,1678,8107,44,-116,-39
0.161193,2,1710,8091,44,-33,-45
0.161332,12,1726,8111,50,-71,12
0.161471,23,1712,8120,-7,-64,-39
0.161611,6,1681,8099,56,-71,-7
0.16175,17,1698,8126,37,-96,-13
0.161889,39,1678,8092,56,-52,-45
0.162029,20,1672,8069,44,-58,6
0.162168,39,1646,8096,37,-96,-26
0.162307,-5,1690,8095,50,-71,-51
0.162447,61,1679,8064,63,-64,6
0.162586,9,1683,8120,19,-71,-20
0.162725,36,1680,8091,19,-77,-20
0.162865,-9,1679,8077,81,-52,-26
0.163004,25,1697,8132,75,-109,-32
0.163143,37,1660,8101,0,-64,-20
0.163282,-29,1677,8117,31,-58,18
0.163422,37,1690,8103,63,-90,-51
0.163561,42,1712,8131,25,-77,-39
0.163701,67,1664,8084,31,-64,12
0.163841,8,1682,8078,63,-71,-51
0.163979,13,1719,8076,37,-64,18
0.164118,-48,1681,8069,56,-64,-58
0.164258,29,1680,8022,6,-90,-7
0.164397,10,1745,8052,88,-64,-7
0.164536,-8,1732,8048,0,-58,-32
0.164675,-52,1719,8077,69,-122,-13
0.164815,-39,1664,8081,63,-39,-39
0.164954,44,1679,8113,6,-96,-26
0.165093,-7,1681,8081,100,-52,-20
0.165233,-22,1665,8146,0,-77,-20
0.165373,6,1633,8111,37,-84,-39
0.165512,5,1686,8077,69,-45,-13
0.165653,-13,1674,8098,19,-52,-26
0.16579,-30,1671,8092,50,-90,6
0.165929,1,1666,8107,37,-71,-45
0.16607,48,1674,8091,56,-64,-26
0.166208,-27,1686,8041,25,-33,6
0.166347,18,1684,8101,37,-109,-45
0.166487,1,1677,8140,63,-39,-7
0.166626,-24,1708,8124,37,-109,-26
0.166766,13,1658,8119,19,-45,-13
0.166905,22,1679,8098,69,-45,-39
0.167045,18,1741,8113,44,-84,-1
0.167184,-4,1687,8135,37,-45,-32
0.167323,-23,1676,8136,50,-90,-26
0.167462,42,1703,8166,50,-45,-26
0.167602,9,1705,8133,6,-71,-1
0.167741,21,1713,8082,81,-52,-32
0.16788,51,1669,8027,31,-84,-13
0.168019,20,1682,8091,44,-58,-32
0.168159,-16,1712,8094,56,-103,-13
0.168298,-23,1688,8113,37,-39,-45
0.168437,15,1660,8087,56,-116,-1
0.168577,16,1718,8115,31,-71,-26
0.168716,-49,1652,8119,63,-71,-45
0.168855,3,1654,8091,69,-52,12
0.168995,-24,1665,8122,6,-71,-32
0.169134,-7,1693,8104,81,-109,-58
0.169273,-15,1694,8087,37,-45,31
0.169414,-35,1690,8091,25,-77,-45
0.169552,49,1694,8061,25,-77,-32
0.169691,-22,1683,8108,81,-90,-32
0.169831,34,1677,8052,37,-58,12
0.16997,22,1662,8114,0,-39,-32
0.170111,11,1699,8060,56,-109,-32
0.170248,15,1658,8074,44,-58,-13
0.170388,12,1657,8090,19,-64,-26
0.170527,6,1678,8083,44,-64,-13
0.170667,38,1662,8083,50,-90,-39
0.170806,32,1737,8122,19,-45,-1
0.170945,49,1716,8046,69,-84,-20
0.171084,76,1689,8035,37,-90,-39
0.171224,21,1625,8086,12,-26,-1
0.171366,-12,1634,8084,81,-90,-70
0.171502,-7,1709,8046,19,-71,37
0.171642,50,1702,8057,75,-84,-51
0.171781,9,1646,8069,6,-52,-13
0.17192,-25,1653,8107,94,-77,-7
0.17206,-2,1725,8094,-7,-58,-13
0.172199,31,1657,8028,75,-71,-45
0.172338,1,1656,8057,25,-96,-1
0.172477,30,1688,8048,63,-45,-26
0.172617,15,1653,8144,19,-84,-7
0.172756,19,1723,8094,63,-64,-20
0.172896,25,1742,8085,63,-58,-45
0.173035,-29,1720,8078,31,-103,12
0.173174,-18,1657,8089,19,-39,-7
0.173313,43,1639,8068,94,-90,-32
0.173453,4,1690,8065,-7,-64,-13
0.173592,22,1765,8074,88,-96,-64
0.173731,12,1687,8000,37,-45,31
0.173871,32,1652,8013,37,-90,-32
0.174011,-11,1680,8065,31,-39,-20
0.17415,-18,1712,8155,44,-96,-45
0.174289,7,1652,8149,31,-45,18
0.174428,20,1668,8126,56,-90,-58
0.174567,-2,1666,8096,31,-33,-1
0.174706,-32,1661,8105,25,-84,12
0.174846,12,1705,8055,37,-77,-51
0.174985,-18,1670,8095,81,-84,-32
0.175125,16,1675,8127,0,-58,-1
0.175264,30,1715,8087,63,-103,-45
0.175403,30,1701,8088,50,-58,12
0.175543,-31,1726,8131,12,-77,-45
0.175682,-22,1681,8127,50,-96,-32
0.175821,18,1690,8118,63,-39,-32
0.175961,-18,1711,8109,37,-64,6
0.1761,-23,1732,8164,19,-64,-1
0.176239,14,1699,8062,56,-77,-45
0.176378,-6,1682,8084,6,-71,25
0.176518,4,1722,8092,56,-33,-45
0.176658,-14,1750,8095,75,-135,-26
0.176796,-10,1719,8123,44,-20,-64
0.176936,82,1682,8085,12,-103,31
0.177078,75,1731,8115,63,-20,-26
0.177214,23,1705,8045,25,-84,-32
0.177354,21,1698,8063,31,-71,-32
0.177493,-42,1712,8126,75,-58,-20
0.177632,-57,1713,8099,44,-84,-7
0.177772,20,1704,8129,0,-45,-26
0.177911,26,1712,8094,63,-103,-51
0.17805,26,1724,8129,37,-26,-1
0.17819,27,1638,8092,50,-64,-1
0.178329,25,1702,8050,63,-103,-51
0.178468,-12,1693,8117,25,-52,-39
0.178608,-39,1677,8119,56,-96,6
0.178747,11,1707,8091,25,-26,-7
0.178886,-23,1670,8129,69,-71,-32
0.179026,-10,1640,8108,50,-103,-51
0.179165,5,1649,8102,12,-26,12
0.179304,30,1630,8132,63,-77,-39
0.179444,-11,1735,8116,-7,-84,-13
0.179583,-14,1683,8109,94,-77,-51
0.179722,-24,1653,8093,44,-52,18
0.179862,-6,1680,8144,56,-71,-51
0.180001,17,1679,8116,25,-96,-39
0.18014,38,1673,8065,56,-77,6
0.18028,-12,1674,8076,6,-33,-32
0.180419,-29,1690,8078,69,-116,-32
0.180558,-28,1679,8077,69,-84,-26
0.180697,13,1659,8033,6,-7,12
0.180837,-3,1652,8064,37,-109,-45
0.180976,22,1690,8090,63,-84,-45
0.181115,-47,1733,8060,19,-84,-1
0.181255,2,1671,8125,75,-71,-13
0.181396,35,1643,8135,19,-52,-20
0.181533,39,1707,8098,37,-90,-20
0.181673,10,1671,8107,56,-103,-51
0.181812,25,1660,8098,6,-52,44
0.181951,10,1725,8068,56,-64,-45
0.18209,16,1698,8089,56,-84,-39
0.18223,44,1659,8078,44,-71,6
0.182369,29,1732,8043,19,-71,-45
0.182509,-16,1678,8068,56,-64,-7
0.182648,-10,1671,8044,12,-64,-32
0.182787,-46,1662,8048,56,-90,-26
0.182927,-26,1663,8065,44,-71,-26
0.183066,33,1651,8131,37,-52,18
0.183205,47,1658,8125,50,-116,-64
0.183346,23,1733,8103,19,-33,18
0.183484,2,1712,8095,50,-90,-39
0.183623,-26,1644,8090,88,-90,-13
0.183763,-15,1652,8113,0,-39,-20
0.183903,33,1656,8075,63,-84,-39
0.184041,43,1759,8080,37,-71,-32
0.184181,35,1697,8099,25,-71,31
0.18432,45,1665,8046,88,-58,-58
0.184459,73,1684,8068,-19,-71,-20
0.184599,31,1691,8034,88,-90,-39
0.184737,7,1686,8034,50,-45,-7
0.184877,-6,1696,8090,31,-58,6
0.185016,-54,1640,8109,69,-116,-64
0.185156,3,1661,8108,19,-45,31
0.185295,-30,1630,8049,12,-64,-45
0.185435,-20,1661,8092,94,-64,-26
0.185573,11,1689,8129,-25,-90,-7
0.185714,0,1634,8149,94,-58,-39
0.185852,17,1712,8086,19,-64,18
0.185993,-44,1629,8080,31,-52,-51
0.186131,0,1687,8105,63,-116,-32
0.18627,17,1674,8086,25,-33,18
0.186409,10,1691,8133,44,-90,-45
0.186549,19,1646,8121,63,-64,-26
0.18669,1,1684,8097,44,-64,-20
0.186827,-4,1699,8075,25,-52,6
0.186967,27,1679,8110,12,-90,-45
0.187107,41,1660,8057,81,-45,-32
0.187245,39,1648,8068,44,-96,-13
0.187385,0,1671,8092,37,-45,-26
0.187524,4,1650,8088,81,-96,-13
0.187663,58,1664,8068,-32,-33,-13
0.187803,29,1673,8098,94,-64,-45
0.187942,-34,1633,8148,31,-109,-7
0.188081,-41,1612,8094,44,-52,-26
0.188221,65,1701,8059,63,-84,-20
0.188363,38,1743,8130,6,-45,-7
0.188499,1,1695,8098,81,-116,-58
0.188638,-12,1652,8114,19,-52,12
0.188778,46,1670,8062,69,-52,-13
0.188917,-40,1643,8081,25,-84,-32
0.189057,-103,1671,8093,50,-64,-26
0.189196,-4,1672,8089,31,-52,6
0.189335,3,1679,8091,63,-109,-64
0.189475,69,1694,8101,12,-58,12
0.189614,6,1658,8107,81,-96,-51
0.189753,42,1669,8141,19,-58,-13
0.189893,16,1635,8117,63,-90,-13
0.190032,30,1650,8100,19,-39,-26
0.190171,-18,1679,8085,75,-84,-32
0.190311,-12,1714,8098,56,-96,-26
0.19045,-1,1671,8111,6,-39,18
0.190589,-9,1611,8084,88,-90,-64
0.190728,17,1696,8066,6,-77,12
0.190868,-18,1694,8115,44,-84,-51
0.191007,18,1649,8047,81,-71,-32
0.191147,12,1643,8024,19,-64,-1
0.191286,13,1696,8077,50,-103,-20
0.191425,21,1687,8085,37,-45,-20
0.191564,45,1665,8084,50,-84,-32
0.191704,-14,1678,8115,37,-84,-13
0.191843,-2,1698,8085,56,-64,-13
0.191982,17,1649,8066,12,-64,-20
0.192122,14,1709,8125,88,-84,-26
0.192261,10,1730,8096,6,-90,-26
0.1924,-12,1681,8089,37,-13,-7
0.19254,16,1661,8053,88,-141,-51
0.192679,12,1662,8140,0,-39,6
0.192818,19,1662,8060,50,-45,-39
0.192958,12,1651,8077,75,-103,-26
0.193098,13,1698,8117,25,-33,-1
0.193236,15,1701,8148,25,-90,-13
0.193377,24,1705,8113,63,-96,-39
0.193516,58,1674,8078,31,-58,-32
0.193654,12,1660,8040,37,-58,6
0.193793,-29,1684,8108,75,-96,-51
0.193933,13,1669,8093,-13,-45,31
0.194072,10,1645,8131,75,-90,-51
0.194211,10,1679,8097,50,-84,-13
0.194351,25,1684,8063,12,-26,-45
0.19449,3,1713,8079,63,-71,-1
0.194629,3,1688,8103,44,-122,-51
0.194768,-9,1686,8081,37,-33,-1
0.194908,-4,1684,8108,44,-84,-13
0.195047,-23,1688,8094,19,-33,-7
0.195187,5,1659,8121,56,-109,-26
0.195327,12,1702,8068,25,-58,-39
0.195465,27,1699,8064,81,-90,-13
0.195606,-29,1717,8083,-13,-58,-7
0.195744,66,1653,8028,75,-58,-64
0.195884,49,1677,8068,25,-103,31
0.196026,57,1695,8099,31,-52,-13
0.196162,57,1674,8099,63,-96,-95
0.196301,30,1722,8124,50,-33,50
0.19644,-34,1732,8155,44,-103,-45
0.19658,3,1685,8087,25,-52,-32
0.196719,37,1687,8056,44,-96,6
0.196858,5,1698,8094,37,-45,-39
0.196998,29,1673,8120,69,-90,-13
0.197137,39,1666,8067,37,-58,-45
0.197276,-45,1658,8077,0,-64,18
0.197416,-22,1715,8095,63,-58,-39
0.197555,36,1691,8108,56,-109,-26
0.197694,-14,1712,8064,6,-52,-7
0.197834,29,1675,8106,63,-52,-26
0.197973,30,1656,8030,69,-90,-64
0.198112,-13,1651,8121,12,-39,25
0.198252,-5,1642,8116,50,-103,-58
0.198391,-25,1688,8101,44,-64,-7
0.19853,-9,1655,8068,25,-77,-13
0.19867,20,1688,8027,56,-52,-26
0.198809,-20,1664,8076,63,-71,-7
0.198948,34,1685,8080,37,-90,-45
0.199088,-14,1695,8103,50,-77,-32
0.199227,-23,1699,8166,0,-45,44
0.199366,-22,1640,8108,94,-71,-70
0.199505,-9,1688,8132,0,-45,-26
0.199645,-19,1666,8098,37,-96,-7
0.199784,-14,1718,8092,81,-84,-7
0.199923,-22,1686,8070,37,-64,-58
0.200063,20,1632,8114,19,-52,12
0.200202,21,1684,8090,81,-96,-64
0.200341,45,1699,8081,0,-58,12
0.200481,-8,1715,8091,119,-90,-45
0.20062,28,1638,8108,-32,-26,12
0.200759,-16,1662,8076,88,-122,-32
0.200899,57,1671,8070,44,-71,-32
0.201038,37,1632,8061,56,-77,-20
0.201177,-7,1648,8075,37,-64,-39
0.201317,19,1730,8083,63,-64,12
0.201456,22,1706,8035,56,-77,-45
0.201595,-11,1660,8175,19,-71,-7
0.201735,17,1689,8127,56,-71,-26
0.201874,-11,1594,8070,37,-52,-1
0.202013,25,1683,8082,69,-103,-58
0.202153,14,1727,8116,12,-33,12
0.202292,-25,1692,8082,56,-103,-39
0.202431,41,1674,8091,37,-39,-7
0.202571,47,1666,8085,63,-96,-32
0.20271,6,1705,8076,44,-33,-7
0.202849,-36,1731,8150,19,-109,-13
0.202988,-39,1680,8098,75,-84,-39
0.203128,34,1682,8108,37,-58,25
0.203267,-21,1648,8114,37,-71,-51
0.203406,-14,1690,8068,63,-84,-7
0.203546,15,1698,8013,63,-71,-32
0.203685,18,1622,8081,44,-84,-1
0.203824,10,1657,8102,37,-45,-32
0.203964,64,1686,8120,44,-77,-13
0.204103,0,1696,8128,44,-84,-20
0.204242,-21,1707,8119,63,-77,-39
0.204382,-12,1660,8080,37,-64,-1
0.204521,36,1692,8049,25,-45,-32
0.20466,18,1721,8072,63,-109,-26
0.2048,35,1653,8084,37,-52,-1
0.204939,37,1673,8078,31,-109,-45
0.205078,-15,1669,8067,31,-26,-7
0.205218,36,1661,8097,50,-96,-7
0.205357,37,1663,8068,56,-103,-32
0.205496,-35,1654,8068,6,-39,-7
0.205636,-58,1696,8045,37,-90,-20
0.205775,-16,1710,8080,25,-13,-13
0.205914,32,1702,8128,94,-167,-58
0.206053,18,1709,8093,19,12,6
0.206193,-29,1641,8085,56,-115,-20
0.206334,-10,1655,8149,19,-45,-1
0.206471,0,1665,8118,69,-84,-58
0.206611,-22,1704,8082,25,-77,-20
0.20675,12,1681,8106,50,-45,12
0.206889,1,1629,8082,56,-64,-45
0.207029,63,1657,8123,25,-103,-32
0.207168,53,1679,8104,69,-39,-13
0.207307,-24,1705,8125,12,-96,-20
0.207447,21,1637,8110,56,-84,-32
0.207586,-3,1688,8065,25,-39,-7
0.207725,5,1684,8063,63,-96,-51
0.207865,16,1672,8049,75,-39,-7
0.208004,-8,1678,8050,31,-96,-26
0.208143,14,1656,8143,25,-52,-20
0.208283,48,1671,8132,56,-64,-13
0.208422,-17,1690,8116,37,-90,-58
0.208561,20,1739,8117,25,-71,18
0.208701,59,1723,8087,63,-33,-39
0.20884,13,1696,8129,44,-96,-7
0.208979,15,1654,8138,31,-77,-45
0.209119,-16,1724,8101,25,-52,25
0.209258,-43,1713,8085,37,-58,-58
0.209397,-35,1722,8136,69,-115,-13
0.209536,19,1656,8057,31,-52,-1
0.209676,6,1664,8104,37,-58,-45
0.209815,-1,1669,8049,81,-96,-26
0.209954,9,1670,8044,-7,-71,-1
0.210094,21,1729,8062,56,-58,-26
0.210233,15,1672,8066,63,-84,-26
0.210372,52,1698,8084,69,-58,-20
0.210512,17,1676,8072,-7,-90,-58
0.210651,0,1668,8059,69,-39,12
0.21079,-15,1657,8077,31,-84,-13
0.21093,-1,1686,8102,63,-39,-32
0.211069,-5,1676,8112,37,-96,-39
0.211208,-8,1674,8053,69,-64,-7
0.211348,45,1642,8043,12,-103,-20
0.211487,16,1671,8090,75,-77,-13
0.211626,45,1723,8084,37,-71,-58
0.211766,37,1666,8128,19,-64,12
0.211905,-17,1681,8108,56,-84,-39
0.212045,-59,1663,8096,25,-58,-13
0.212184,-47,1658,8092,63,-77,-26
0.212323,-22,1692,8103,37,-77,-20
0.212462,-6,1685,8132,69,-71,-26
0.212602,16,1697,8069,12,-64,-13
0.212741,25,1667,8111,50,-90,-13
0.21288,-8,1663,8095,81,-45,-39
0.213019,-2,1673,8055,-7,-77,12
0.213159,-9,1686,8048,75,-71,-26
0.213298,-11,1663,8106,44,-71,-39
0.213437,-2,1681,8072,50,-77,-13
0.213577,1,1743,8046,81,-71,-39
0.213716,37,1729,8065,-7,-58,12
0.213855,16,1667,8081,75,-77,-70
0.213995,-30,1687,8118,31,-77,-1
0.214134,-18,1688,8062,75,-64,-7
0.214273,10,1690,8062,25,-77,-32
0.214413,71,1638,8026,69,-71,-26
0.214552,8,1674,8053,25,-71,-26
0.214691,-73,1683,8041,50,-90,-32
0.214831,-12,1653,8046,25,-52,6
0.21497,23,1633,8063,69,-58,-45
0.215109,-24,1633,8072,56,-128,-13
0.215249,43,1702,8076,19,-58,-26
0.215388,62,1708,8074,44,-52,12
0.215527,3,1670,8113,50,-90,-45
0.215667,10,1750,8075,12,-64,-7
0.215806,-3,1662,8085,56,-64,-32
0.215945,2,1676,8102,56,-103,-26
0.216085,20,1710,8156,12,-58,-1
0.216224,2,1690,8110,63,-71,-32
0.216363,-2,1658,8083,44,-64,-39
0.216502,-10,1660,8122,44,-90,-1
0.216642,10,1676,8099,50,-45,-20
0.216781,-16,1696,8043,25,-71,-13
0.21692,-14,1670,8106,88,-90,-32
0.21706,36,1744,8077,6,-96,-13
0.217201,48,1686,8122,31,-45,-39
0.217338,-18,1636,8115,63,-77,-7
0.217479,17,1670,8112,0,-26,-20
0.217617,32,1631,8143,94,-122,-7
0.217759,-3,1655,8097,6,-26,-39
0.217898,48,1688,8092,50,-109,-39
0.218035,16,1652,8089,63,-45,12
0.218174,-16,1656,8078,31,-52,-51
0.218321,-6,1665,8105,88,-115,-32
0.218453,-3,1664,8074,0,-33,6
0.218592,29,1679,8072,50,-103,-58
0.218733,1,1670,8077,63,-33,-7
0.218871,17,1683,8155,31,-103,-39
0.21901,-39,1696,8072,56,-64,-1
0.21915,-36,1709,8052,12,-33,-7
0.219289,-16,1686,8149,75,-90,-51
0.219428,-50,1681,8148,37,-71,12
0.219569,40,1694,8070,56,-64,-20
0.219712,40,1703,8103,-7,-103,-70
0.219848,62,1696,8092,88,-45,12
0.219987,16,1691,8122,31,-77,-58
0.220125,1,1701,8093,6,-58,37
0.220265,-7,1690,8045,94,-77,-70
0.220405,17,1650,8067,31,-45,25
0.220543,22,1668,8087,56,-84,-58
0.220682,9,1669,8070,6,-45,18
0.220821,-22,1641,8132,56,-103,-58
0.220961,10,1716,8052,44,-58,-39
0.2211,48,1674,8068,56,-77,-26
0.221239,7,1675,8118,56,-77,-20
0.221379,48,1731,8060,56,-77,-26
0.221518,-9,1696,8110,37,-71,-32
0.221657,21,1698,8072,12,-39,6
0.221797,45,1696,8052,63,-77,-39
0.221936,26,1661,8094,75,-115,-32
0.222076,41,1715,8068,-19,-52,-32
0.222215,13,1684,8070,81,-64,12
0.222354,-3,1678,8130,69,-84,-51
0.222493,23,1706,8078,-44,-1,6
0.222632,-18,1657,8109,94,-109,-58
0.222772,-14,1686,8080,63,-84,-26
0.222911,12,1680,8129,0,-64,-1
0.22305,59,1723,8105,81,-64,-45
0.22319,0,1701,8148,31,-90,-13
0.223329,7,1715,8130,37,-71,-7
0.223468,26,1654,8080,56,-90,-64
0.223608,13,1622,8067,19,-45,31
0.223747,-25,1695,8026,56,-84,-51
0.223886,-8,1688,8087,19,-77,12
0.224026,10,1674,8056,94,-45,-32
0.224165,11,1683,8006,6,-77,-32
0.224303,4,1711,8100,37,-77,-13
0.224445,0,1689,8141,63,-58,-26
0.224583,27,1694,8105,25,-71,-13
0.224722,59,1641,8125,44,-96,-58
0.224862,14,1661,8158,63,-45,18
0.225002,-9,1708,8112,25,-58,-13
0.225141,-29,1713,8078,56,-115,-70
0.225279,-3,1730,8043,37,-20,12
0.225419,-38,1708,8108,12,-71,-13
0.225561,22,1695,8104,94,-64,-39
0.225698,-14,1663,8115,56,-141,-45
0.225838,-18,1689,8089,12,-1,37
0.225976,-14,1667,8050,81,-115,-58
0.226116,34,1720,8046,0,-26,6
0.226254,37,1652,8114,81,-128,-70
0.2264,12,1661,8081,0,-7,18
0.226534,31,1685,8100,50,-90,-26
0.226673,41,1673,8081,63,-77,-70
0.226813,-2,1680,8055,25,-52,31
0.226951,-10,1690,8062,69,-58,-32
0.227092,11,1677,8119,0,-64,-45
0.22723,-13,1693,8079,63,-71,6
0.22737,-36,1692,8048,31,-84,-39
0.227509,-5,1735,8081,69,-39,-20
0.227648,31,1718,8047,37,-71,-32
0.227789,74,1699,8060,19,-77,-13
0.227927,7,1660,8084,56,-58,-45
0.228068,30,1691,8096,50,-71,-7
0.228205,1,1731,8070,25,-58,-51
0.228346,7,1706,8122,69,-128,-7
0.228485,14,1681,8085,31,-20,-13
0.228626,-1,1686,8038,31,-115,-58
0.228764,40,1669,8097,56,-39,6
0.228902,27,1708,8059,25,-77,-32
0.229041,-19,1660,8104,75,-96,-13
0.229181,27,1719,8071,19,-58,-32
0.22932,-8,1704,8103,50,-77,-20
0.229459,-9,1672,8112,37,-52,-1
0.2296,8,1680,8098,44,-103,-45
0.229738,-16,1662,8130,44,-20,18
0.229877,41,1679,8119,50,-84,-39
0.230017,2,1664,8092,56,-64,-45
0.230156,37,1695,8112,63,-103,-1
0.230295,50,1653,8086,19,-39,-1
0.230434,23,1696,8115,44,-84,-20
0.230574,42,1718,8071,63,-64,-26
0.230713,35,1739,8081,50,-96,-32
0.230852,52,1639,8128,44,-20,12
0.230992,38,1685,8114,44,-115,-39
0.231131,22,1714,8074,56,-58,-45
0.23127,19,1728,8068,25,-45,12
0.23141,12,1701,8063,56,-77,-26
0.231549,-10,1666,8067,75,-103,-51
0.231689,47,1690,8171,-13,-39,-7
0.231829,76,1688,8112,88,-103,-32
0.231969,-17,1686,8097,37,-52,-1
0.232106,24,1669,8009,19,-84,-26
0.232246,59,1715,8057,44,-58,-32
0.232386,37,1686,8128,12,-64,12
0.232524,23,1734,8079,94,-71,-32
0.232664,-50,1665,8103,0,-77,-26
0.232803,8,1618,8106,69,-64,-1
0.232943,25,1701,8098,63,-90,-83
0.233082,37,1714,8068,0,-45,25
0.233221,-8,1676,8090,25,-58,-1
0.233361,-35,1651,8121,56,-96,-26
0.2335,1,1666,8048,31,-39,-26
0.233639,-33,1699,8117,63,-96,-51
0.233779,-25,1662,8117,25,-26,25
0.233918,-21,1680,8068,63,-135,-58
0.234058,-33,1667,8069,50,-45,-13
0.234196,-13,1650,8097,6,-64,-1
0.234335,-54,1664,8074,56,-58,-26
0.234475,-12,1704,8102,56,-64,-26
0.234614,-14,1702,8084,50,-77,-1
0.234753,-7,1706,8143,44,-90,-20
0.234893,-7,1616,8114,0,-13,-32
0.235032,0,1700,8097,100,-109,-20
0.235171,0,1673,8077,25,-64,-20
0.235311,7,1714,8049,25,-64,-13
0.23545,-37,1700,8071,44,-90,-13
0.23559,10,1702,8157,37,-33,-7
0.235729,-27,1667,8091,69,-109,-58
0.235868,18,1639,8069,44,-52,-1
0.236007,-10,1675,8082,31,-90,-26
0.236147,-33,1720,8086,44,-39,-7
0.236286,40,1673,8050,-13,-84,-26
0.236427,54,1650,8114,125,-84,-45
0.236565,-24,1690,8022,12,-45,-20
0.236704,5,1684,8080,6,-64,12
0.236844,14,1731,8092,63,-77,-39
0.236983,40,1705,8058,50,-90,-32
0.237122,22,1701,8071,31,-64,-13
0.237261,-1,1671,8070,19,-64,-20
0.237402,35,1651,8055,69,-33,-32
0.23754,-46,1674,8079,25,-109,-26
0.237679,-11,1681,8074,37,-58,-1
0.237819,49,1667,8097,94,-45,-51
0.237958,40,1657,8080,-7,-64,-7
0.238097,-8,1699,8101,56,-96,-13
0.238237,32,1753,8087,50,-71,-32
0.238376,19,1732,8107,0,-45,-7
0.238515,3,1669,8145,75,-96,-39
0.238654,17,1723,8053,12,-26,-20
0.238794,38,1690,8102,69,-103,-32
0.238933,43,1680,8104,25,-77,-7
0.239073,-11,1707,8093,50,-84,-51
0.239212,6,1712,8085,37,-52,6
0.239351,58,1693,8101,44,-90,-39
0.239491,51,1666,8114,37,-64,-26
0.239631,8,1698,8097,63,-90,-26
0.239769,16,1697,8074,44,-64,6
0.239908,66,1636,8102,-19,-71,-32
0.240048,29,1664,8088,113,-71,-39
0.240187,16,1673,8056,0,-84,6
0.240326,17,1670,8055,25,-64,-32
0.240465,-15,1699,8074,81,-96,-51
0.240605,-32,1702,8064,44,-39,31
0.240744,31,1690,8097,25,-52,-39
0.240883,35,1671,8068,44,-122,-26
0.241023,21,1677,8089,69,-52,-39
0.241163,-16,1680,8114,37,-77,-7
0.241301,-44,1710,8094,6,-71,-20
0.241441,-33,1627,8107,81,-90,-26
0.24158,-21,1676,8093,44,-45,-1
0.241721,27,1683,8067,37,-115,-45
0.241859,24,1696,8070,-13,-45,-13
0.241998,29,1713,8103,113,-58,-13
0.242137,26,1680,8084,31,-90,-45
0.242279,20,1672,8083,37,-52,-7
0.242417,-31,1682,8139,0,-58,-7
0.242555,60,1658,8089,63,-45,-45
0.242695,33,1712,8068,44,-122,-45
0.242836,22,1682,8102,25,-26,50
0.242973,-3,1685,8115,44,-90,-64
0.243113,25,1714,8135,37,-71,-32
0.243252,-48,1672,8120,69,-45,-13
0.243391,11,1680,8044,-7,-52,-1
0.243531,52,1654,8075,50,-122,-13
0.24367,57,1666,8047,63,-52,-39
0.243809,44,1729,8085,44,-71,-32
0.24395,24,1707,8084,6,-33,-7
0.244088,19,1728,8069,81,-103,-26
0.244227,12,1700,8074,19,-58,-45
0.244368,-27,1690,8049,37,-84,-26
0.244506,-1,1668,8078,44,-33,18
0.244645,1,1655,8120,56,-103,-51
0.244785,-41,1634,8126,25,-52,-39
0.244926,-17,1637,8053,31,-71,-32
0.245063,14,1676,8082,50,-58,12
0.245203,3,1738,8074,44,-77,-45
0.245344,-46,1684,8043,50,-77,-7
0.245481,-26,1640,8050,19,-45,-45
0.24562,9,1686,8069,75,-96,-20
0.24576,36,1690,8089,31,-64,-26
0.245899,56,1694,8092,19,-33,-7
0.246038,9,1710,8150,69,-141,-58
0.246178,-14,1711,8063,44,-26,31
0.246317,4,1677,8046,44,-84,-70
0.246456,7,1687,8077,19,-64,-20
0.246596,-15,1710,8062,44,-58,6
0.246735,45,1689,8083,50,-90,-51
0.246874,24,1699,8093,44,-64,-20
0.247014,16,1709,8039,31,-26,-39
0.247153,38,1660,8060,69,-135,-7
0.247292,-4,1706,8117,-13,-20,-7
0.247432,35,1737,8108,81,-116,-26
0.247571,78,1752,8059,69,-33,-26
0.24771,35,1682,8049,-7,-77,-26
0.24785,3,1716,8082,44,-109,-13
0.24799,1,1714,8084,69,-58,-20
0.248128,30,1680,8060,19,-84,-58
0.248268,-4,1678,8068,56,-77,6
0.248407,16,1658,8089,56,-71,-7
0.248546,1,1631,8109,25,-84,-13
0.248685,4,1690,8093,56,-64,-39
0.248825,29,1705,8021,44,-64,12
0.248964,-4,1711,8065,37,-52,-51
0.249103,-7,1744,8047,81,-122,-26
0.249243,49,1719,8091,-19,-52,-1
0.249382,20,1722,8114,81,-64,-26
0.249523,1,1693,8127,19,-39,-45
0.249661,63,1647,8100,81,-77,-13
0.2498,20,1677,8133,25,-77,-7
0.249939,17,1645,8081,56,-64,-32
0.250079,6,1652,8085,19,-26,6
0.25022,43,1665,8078,75,-103,-51
0.250357,21,1675,8075,50,-96,-39
0.250496,-11,1679,8090,0,-39,6
0.250636,-16,1700,8110,75,-71,-32
0.250775,-34,1673,8113,50,-64,-26
0.250914,14,1658,8109,44,-45,6
0.251054,16,1664,8090,31,-103,-39
0.251193,8,1729,8013,75,-71,-13
0.251332,31,1689,8041,31,-90,-51
0.251472,-6,1637,8080,-7,-13,44
0.251612,20,1693,8080,94,-84,-83
0.25175,39,1701,8048,63,-90,-1
0.25189,8,1667,8080,37,-45,12
0.252029,-28,1652,8082,50,-52,-51
0.252168,3,1676,8063,37,-96,-7
0.252309,27,1716,8069,25,-84,-20
0.252447,-8,1709,8104,63,-39,-39
0.252586,-22,1639,8101,-19,-64,6
0.252725,-23,1668,8063,94,-77,-51
0.252866,-21,1629,8082,25,-64,-26
0.253008,24,1676,8067,44,-77,12
0.253146,-13,1675,8080,44,-64,-26
0.253283,22,1720,8094,12,-71,-26
0.253423,10,1723,8133,63,-90,-32
0.253561,33,1712,8092,37,-77,-26
0.253701,46,1672,8075,50,-52,-26
0.25384,-16,1734,8057,19,-71,18
0.25398,20,1698,8096,50,-58,-26
0.254119,-17,1689,8111,69,-90,-70
0.254258,20,1677,8037,6,-45,37
0.254398,38,1692,8051,56,-122,-58
0.254537,58,1641,8069,75,-26,-20
0.254676,19,1660,8025,12,-109,6
0.254816,6,1631,8078,56,-58,-51
0.254955,-16,1698,8064,25,-64,-1
0.255094,-24,1714,8078,69,-71,-20
0.255234,-14,1630,8080,25,-90,-13
0.255373,22,1711,8110,19,-71,-39
0.255514,18,1659,8055,56,-71,-1
0.255651,4,1674,8068,56,-64,-39
0.255791,62,1638,8089,12,-45,-1
0.25593,4,1680,8055,81,-96,-45
0.256069,36,1703,8042,25,-84,-20
0.25621,70,1678,8092,25,-45,-13
0.256348,25,1677,8108,50,-64,-20
0.256487,-16,1665,8142,19,-52,-7
0.256627,-8,1652,8137,63,-90,-51
0.256766,16,1657,8077,12,-20,31
0.256905,-11,1680,8039,88,-122,-70
0.257045,25,1671,8107,12,-45,-1
0.257184,-36,1675,8092,100,-77,6
0.257323,3,1663,8042,-7,-77,-7
0.257462,-21,1670,8097,81,-58,-70
0.257602,-46,1672,8103,6,-64,25
0.257741,-34,1664,8095,69,-52,-51
0.257881,-24,1643,8104,63,-109,6
0.25802,-17,1609,8066,63,-77,-51
0.258159,24,1636,8118,37,-52,6
0.258299,26,1643,8128,25,-77,-20
0.258438,1,1680,8112,63,-90,-39
0.258577,7,1744,8079,44,-33,12
0.258717,-7,1679,8088,75,-103,-58
0.258856,44,1677,8118,6,-45,6
0.258995,45,1676,8092,113,-90,-26
0.259134,1,1681,8134,0,-77,-26
0.259274,2,1621,8112,69,-64,-32
0.259413,27,1634,8061,31,-58,-20
0.259553,-23,1677,8041,56,-77,-13
0.259692,42,1750,8041,37,-71,-39
0.259831,39,1658,8113,44,-90,-20
0.259971,42,1688,8141,37,-58,12
0.26011,24,1717,8066,75,-77,-58
0.26025,-4,1643,8040,37,-39,6
0.260388,-36,1649,8090,12,-109,-26
0.260527,-40,1669,8069,75,-58,-13
0.260667,28,1732,8059,31,-90,-45
0.260806,23,1695,8046,56,-45,6
0.260945,24,1694,8053,25,-52,-32
0.261085,16,1660,8061,31,-109,-45
0.26123,4,1646,8044,25,-58,18
0.261364,-17,1663,8112,88,-64,-39
0.261503,-8,1736,8083,31,-90,-26
0.261643,61,1684,8034,6,-52,-1
0.261782,36,1706,8060,75,-77,-26
0.261921,-10,1718,8124,56,-52,-39
0.262061,25,1710,8128,6,-77,-1
0.262199,-5,1676,8130,31,-45,-1
0.262339,-3,1725,8045,81,-71,-58
0.262478,-1,1721,8123,31,-84,-13
0.262617,13,1722,8136,31,-26,12
0.262758,33,1701,8100,63,-122,-32
0.262896,9,1622,8119,6,-26,-32
0.263036,-11,1686,8101,81,-116,-26
0.263174,55,1691,8117,12,-20,-32
0.263314,26,1633,8100,44,-77,-13
0.263453,4,1677,8102,50,-64,-13
0.263593,-7,1688,8149,63,-103,-26
0.263732,17,1685,8096,0,-52,-45
0.263871,36,1644,8068,75,-77,12
0.264011,15,1600,8071,19,-71,-32
0.26415,26,1705,8047,69,-52,-51
0.264289,-5,1674,8071,31,-103,25
0.264428,2,1695,8138,69,-71,-83
0.264568,17,1640,8110,0,-45,50
0.264707,13,1660,8129,63,-103,-70
0.264848,38,1680,8105,44,-26,-1
0.264986,23,1655,8118,19,-64,-7
0.265125,75,1678,8077,75,-71,-58
0.265264,-28,1708,8095,56,-90,-1
0.265404,-27,1697,8096,63,-64,-39
0.265544,16,1687,8129,6,-58,6
0.265683,-31,1704,8065,81,-109,-64
0.265823,81,1697,8107,-7,-1,18
0.265961,6,1689,8144,81,-116,12
0.2661,-52,1691,8087,25,-39,-64
0.26624,-27,1654,8148,75,-122,-13
0.266379,-7,1706,8126,25,-33,-20
0.266518,-19,1703,8064,50,-52,-7
0.266658,38,1683,8116,31,-90,-39
0.266797,7,1687,8144,56,-58,6
0.266936,-42,1692,8101,44,-77,-26
0.267076,-19,1699,8085,50,-58,-51
0.267215,5,1636,8037,56,-77,-7
0.267354,-17,1678,8100,0,-77,-7
0.267494,35,1663,8090,63,-77,-32
0.267633,51,1693,8122,44,-52,-1
0.267772,-54,1675,8089,75,-116,-51
0.267912,14,1718,8091,19,-13,-7
0.268051,2,1712,8078,31,-84,-7
0.26819,-26,1641,8131,107,-64,-20
0.26833,8,1733,8153,-13,-71,-20
0.268469,46,1679,8137,63,-71,-7
0.268608,-4,1705,8088,19,-77,-32
0.268748,47,1673,8028,88,-90,-39
0.268887,-1,1671,8086,12,-77,-13
0.269026,15,1712,8111,50,-39,-13
0.269166,16,1714,8086,44,-84,-51
0.269304,-10,1663,8095,44,-58,12
0.269446,41,1683,8071,37,-64,-45
0.269586,11,1668,8078,94,-84,-32
0.269723,-9,1645,8076,-19,-58,6
0.269863,-1,1677,8076,69,-103,-39
0.270001,-29,1697,8151,44,-52,18
0.270141,-33,1698,8081,44,-96,-51
0.27028,-12,1711,7993,37,-58,-7
0.270419,-6,1680,8093,25,-77,-45
0.270558,18,1682,8122,63,-96,18
0.270698,-8,1640,8056,31,-77,-51
0.270837,5,1698,8076,50,-77,-13
0.270976,-7,1678,8068,31,-71,6
0.271116,0,1718,8082,50,-58,-64
0.271255,50,1663,8082,25,-52,12
0.271397,-21,1640,8117,63,-109,-39
0.271534,59,1733,8156,25,-52,-45
0.271673,-4,1713,8068,56,-71,6
0.271813,-54,1683,8092,56,-45,-39
0.271952,-23,1704,8096,25,-135,-39
0.272092,-19,1684,8124,75,-26,-32
0.27223,64,1680,8112,-13,-45,31
0.27237,49,1655,8116,107,-103,-89
0.272509,26,1669,8100,0,-64,12
0.272648,19,1685,8058,44,-58,-20
0.272788,-60,1655,8040,37,-45,-26
0.272929,-37,1711,8079,69,-84,-7
0.273066,0,1688,8084,25,-58,-39
0.273206,29,1654,8055,50,-84,-7
0.273345,-2,1668,8071,81,-58,-76
0.273486,-40,1720,8118,-7,-45,44
0.273624,26,1694,8099,63,-84,-26
0.273763,4,1717,8134,37,-96,-39
0.273902,38,1708,8103,31,-52,6
0.274042,8,1741,8147,56,-71,-32
0.274181,-7,1688,8103,56,-52,-20
0.27432,68,1679,8140,12,-77,-1
0.27446,45,1674,8107,88,-77,-58
0.274599,28,1701,8047,44,-103,-26
0.274738,7,1730,8090,31,-45,18
0.274878,12,1648,8069,25,-84,-32
0.275017,-22,1652,8083,56,-71,-39
0.275156,-12,1672,8138,63,-103,-20
0.275295,25,1697,8134,50,-64,-45
0.275435,9,1709,8101,12,-64,12
0.275574,68,1675,8109,56,-71,-51
0.275715,-44,1660,8088,44,-77,-20
0.275853,-25,1631,8056,50,-96,6
0.275992,32,1673,8068,44,-45,-45
0.276132,-28,1726,8122,37,-64,-1
0.276271,-50,1680,8095,37,-84,-45
0.27641,-39,1680,8051,69,-96,-7
0.276549,26,1671,8116,25,-33,-32
0.276689,-15,1691,8122,81,-109,-7
0.276828,-52,1696,8102,6,-45,-32
0.276967,67,1673,8075,63,-77,-39
0.277107,-11,1665,8127,37,-90,-1
0.277246,-25,1632,8097,56,-58,-20
0.277385,18,1659,8096,37,-71,-45
0.277525,1,1648,8060,63,-84,-13
0.277664,12,1663,8094,12,-39,-13
0.277803,2,1748,8111,63,-96,-32
0.277943,-14,1684,8155,75,-77,-32
0.278082,-24,1662,8114,0,-58,-13
0.278221,38,1725,8081,94,-77,-26
0.278361,-31,1703,8070,-7,-64,-32
0.2785,-6,1727,8113,63,-71,6
0.278639,-22,1696,8071,44,-71,-26
0.278779,38,1695,8103,63,-71,-32
0.278918,21,1679,8118,56,-96,-20
0.279057,6,1688,8083,-25,-45,-20
0.279201,4,1687,8070,107,-84,-26
0.279337,59,1686,8080,6,-39,6
0.279475,25,1706,8064,19,-90,-32
0.279614,24,1654,8079,88,-128,-45
0.279754,-1,1700,8068,-7,-13,-7
0.279893,-42,1682,8120,63,-96,-1
0.280032,-9,1709,8054,63,-96,-45
0.280172,38,1664,8068,6,-64,-26
0.280311,24,1701,8096,56,-84,-32
0.28045,9,1696,8068,19,-45,25
0.280589,6,1704,8102,69,-109,-51
0.280729,1,1697,8115,44,-71,-20
0.280868,-23,1658,8109,12,-26,-7
0.281007,36,1667,8095,37,-122,-26
0.281147,23,1668,8099,100,-84,-13
0.281286,57,1663,8110,-7,-52,-20
0.281427,-18,1711,8087,50,-90,-45
0.281566,-3,1704,8064,56,-58,12
0.281704,2,1699,8101,37,-84,-39
0.281843,26,1704,8079,44,-39,-26
0.281983,10,1669,8077,44,-84,-13
0.282124,4,1672,8161,56,-84,-20
0.282261,15,1673,8145,56,-77,-45
0.282401,70,1642,8101,19,-45,18
0.28254,-8,1684,8104,63,-77,-32
0.282679,47,1691,8083,12,-45,-1
0.28282,32,1673,8106,56,-96,-39
0.282959,-9,1645,8060,31,-52,-7
0.283097,26,1663,8083,31,-58,-58
0.283237,18,1699,8098,44,-64,12
0.283376,0,1684,8123,37,-77,-32
0.283515,-70,1642,8096,75,-58,-7
0.283655,37,1659,8039,25,-96,-32
0.283794,36,1678,8061,37,-58,-26
0.283937,-13,1686,8136,75,-58,-13
0.284073,-31,1693,8091,6,-84,-32
0.284212,13,1706,8121,75,-84,-51
0.284351,38,1703,8070,56,-52,25
0.284491,18,1724,8090,6,-71,-45
0.28463,-15,1663,8111,88,-103,-7
0.284769,4,1676,8085,37,-64,-26
0.284909,-3,1685,8113,75,-45,-20
0.285048,25,1659,8107,56,-109,-26
0.285187,-57,1675,8011,-32,-7,-1
0.285327,-62,1667,8067,107,-128,-39
0.285466,-5,1699,8061,6,-45,-26
0.285605,-28,1716,8065,63,-71,-7
0.285745,5,1672,8100,50,-90,-39
0.285884,-18,1692,8114,31,-33,-1
0.286023,-38,1671,8039,69,-103,-45
0.286162,22,1706,8063,25,-90,-1
0.286302,1,1668,8058,37,-26,-20
0.286441,16,1704,8067,88,-84,-26
0.286581,50,1718,8048,12,-96,-39
0.28672,-7,1689,8057,75,-45,12
0.286859,14,1722,8049,-25,-84,-39
0.286998,9,1709,8102,119,-77,-45
0.287138,35,1638,8169,-32,-52,-1
0.287277,33,1665,8156,100,-58,-26
0.287416,44,1645,8137,31,-116,-32
0.287556,-33,1654,8084,31,-7,-20
0.287695,-20,1664,8092,75,-96,12
0.287834,14,1696,8082,25,-71,-70
0.287973,29,1746,8108,50,-96,6
0.288113,28,1687,8132,31,-33,-39
0.288252,5,1686,8064,50,-103,-13
0.288391,6,1743,8063,19,-64,-39
0.288531,-35,1711,8100,81,-77,-26
0.28867,-28,1692,8088,19,-71,-1
0.288809,-5,1660,8111,44,-64,-26
0.288949,40,1702,8086,69,-77,-7
0.289088,10,1721,8126,-7,-71,-32
0.289228,58,1775,8096,69,-77,-20
0.289367,12,1710,8139,75,-77,-45
0.289507,28,1707,8089,12,-52,31
0.289645,46,1724,8099,25,-71,-51
0.289785,28,1695,8122,69,-84,-32
0.289925,-18,1674,8073,25,-90,-20
0.290065,-44,1662,8098,50,-33,-13
0.290202,8,1718,8099,50,-77,-26
0.290342,81,1727,8073,69,-90,-32
0.290481,52,1679,8083,25,-64,-13
0.29062,-54,1724,8074,44,-45,-20
0.29076,-30,1678,8131,63,-103,-39
0.290899,15,1659,8072,0,-77,-32
0.291038,-21,1683,8095,50,-52,-1
0.291178,75,1698,8076,50,-77,-13
0.291317,-41,1663,8055,56,-77,-45
0.291457,-38,1669,8147,0,-33,-7
0.291596,25,1686,8088,63,-128,-70
0.291736,2,1718,8081,31,-52,31
0.291876,52,1750,8066,63,-71,-32
0.292015,22,1688,8022,19,-77,-32
0.292153,-34,1660,8110,69,-58,-26
0.292292,-12,1671,8090,6,-39,6
0.292432,-13,1679,8099,50,-96,-45
0.292571,32,1671,8073,25,-77,-7
0.29271,-38,1737,8108,63,-71,-39
0.29285,4,1681,8060,50,-84,-26
0.292989,27,1656,8048,37,-52,-7
0.293128,82,1688,8053,19,-84,-7
0.293268,-33,1674,8093,69,-71,-45
0.293407,-11,1665,8140,31,-96,12
0.293546,6,1673,8131,56,-26,-58
0.293686,2,1651,8071,37,-109,-1
0.293825,-1,1669,8101,69,-71,-20
0.293964,-13,1669,8031,31,-64,-32
0.294104,-3,1675,8078,37,-84,-32
0.294243,62,1683,8084,31,-77,-7
0.294382,31,1698,8080,19,-52,-7
0.294522,-17,1660,8034,94,-103,-13
0.294661,2,1715,8071,25,-33,-13
0.2948,-68,1667,8070,25,-90,-39
0.294939,-24,1704,8055,75,-90,-20
0.295079,-30,1675,8054,19,-64,-7
0.295218,36,1624,8129,25,-84,-45
0.295357,-3,1700,8029,69,-58,18
0.295497,23,1678,8089,50,-77,-51
0.295636,1,1675,8074,37,-71,-7
0.295775,-20,1718,8140,37,-84,-39
0.295915,2,1650,8060,37,-64,6
0.296054,24,1720,8087,81,-96,-45
0.296197,-15,1702,8053,31,-45,-26
0.296333,9,1660,8099,0,-84,12
0.296472,-3,1703,8077,81,-90,-64
0.296611,43,1696,8086,63,-45,-20
0.296751,47,1725,8078,31,-103,-7
0.29689,21,1698,8081,63,-58,-26
0.297029,27,1679,8090,19,-84,-45
0.297168,17,1693,8070,37,-39,-13
0.297308,42,1713,8067,88,-90,-20
0.297447,57,1706,8102,37,-71,-64
0.297587,47,1671,8084,6,-64,37
0.297726,26,1694,8101,94,-58,-51
0.297865,14,1649,8095,25,-115,-45
0.298005,16,1627,8096,50,-7,25
0.298144,13,1657,8121,63,-135,-45
0.298283,5,1698,8116,-7,-33,-1
0.298422,-13,1694,8125,75,-90,-51
0.298562,28,1694,8090,44,-45,6
0.298701,13,1671,8100,69,-109,-45
0.29884,-5,1697,8116,-7,-39,12
0.29898,-18,1717,8123,94,-71,-70
0.299119,-10,1702,8105,6,-52,18
0.299258,0,1682,8075,63,-90,-7
0.299398,-10,1695,8085,12,-77,-20
0.299537,49,1701,8041,56,-45,-20
0.299676,-48,1653,8123,37,-96,-20
0.299816,5,1727,8086,81,-77,-32
0.299955,40,1655,8043,12,-52,6
0.300094,-2,1647,8046,50,-84,-32
0.300234,39,1668,8053,19,-71,-1
0.300373,-8,1636,8087,44,-64,-64
0.300512,-20,1710,8047,37,-84,37
0.300652,8,1714,8087,56,-77,-45
0.300791,57,1724,8065,31,-64,-13
0.30093,28,1699,8084,81,-77,-32
0.30107,13,1703,8072,0,-39,-20
0.301209,15,1652,8091,19,-77,6
0.301348,-4,1639,8033,94,-84,-32
0.301488,-3,1628,8077,44,-84,-51
0.301627,2,1720,8130,37,-33,18
0.301766,32,1686,8101,31,-96,-51
0.301909,57,1669,8104,63,-77,-26
0.302045,20,1717,8099,0,-71,-32
0.302184,48,1683,8089,69,-77,6
0.302323,4,1684,8139,37,-64,-26
0.302463,-6,1655,8086,50,-84,-26
0.302602,46,1692,8036,19,-39,-1
0.302741,-11,1719,8121,69,-109,-58
0.302881,-52,1675,8088,12,-39,25
0.30302,-3,1696,8066,88,-96,-58
0.303159,5,1675,8055,-7,-58,6
0.303299,7,1684,8128,56,-84,-51
0.303438,-10,1678,8099,19,-64,-1
0.303577,-5,1650,8107,88,-84,-32
0.303717,27,1694,8113,19,-64,-26
0.303856,-5,1699,8078,63,-64,-20
0.303995,-9,1691,8038,0,-39,18
0.304135,25,1745,8091,100,-128,-70
0.304274,0,1708,8151,0,-13,18
0.304413,34,1697,8127,63,-128,-45
0.304553,43,1646,8078,50,-33,-32
0.304692,34,1728,8084,12,-77,-26
0.304831,-1,1649,8079,69,-96,-45
0.30497,6,1676,8076,19,-33,6
0.30511,27,1669,8128,81,-90,-7
0.305249,-8,1683,8087,31,-58,-58
0.305388,36,1693,8100,12,-77,6
0.305528,60,1694,8067,50,-96,-20
0.305667,-9,1700,8078,44,-58,-20
0.305806,-3,1663,8120,50,-103,-20
0.305946,7,1678,8082,56,-58,-32
0.306085,2,1658,8171,50,-77,18
0.306224,-43,1672,8139,31,-71,-51
0.306364,-18,1658,8088,63,-84,-13
0.306503,0,1662,8108,44,-71,-39
0.306642,1,1702,8084,44,-58,-1
0.306782,20,1691,8042,37,-84,-32
0.306921,-16,1652,7988,25,-45,-13
0.30706,-53,1694,8012,75,-115,-32
0.3072,26,1658,8043,19,-20,6
0.307339,27,1675,8077,69,-109,-26
0.307478,3,1631,8094,25,-20,-26
0.307618,24,1692,8049,75,-122,-13
0.307757,22,1680,8062,63,-64,-51
0.307896,-12,1682,8076,25,-58,6
0.308036,-27,1696,8066,56,-64,-7
0.308175,10,1712,8047,56,-96,-39
0.308314,-12,1668,8065,31,-58,-39
0.308453,-32,1705,8092,56,-84,-20
0.308593,-30,1686,8057,56,-90,-7
0.308732,16,1649,8058,25,-64,-58
0.308871,36,1644,8078,63,-64,6
0.309011,11,1659,8096,56,-77,-39
0.30915,-14,1663,8126,0,-64,25
0.309289,-53,1738,8064,69,-96,-51
0.309429,-17,1681,8069,69,-71,-13
0.309568,46,1681,8120,19,-45,-20
0.309707,-35,1639,8134,31,-45,-13
0.309847,10,1706,8086,63,-135,-32
0.309986,11,1679,8085,37,-64,-13
0.310125,6,1643,8094,50,-33,-39
0.310265,12,1658,8078,25,-84,-32
0.310404,36,1650,8058,56,-64,12
0.310543,28,1684,8124,56,-96,-39
0.310683,14,1682,8099,37,-71,-13
0.310822,16,1648,8091,44,-52,-13
0.310961,9,1695,8073,25,-103,-26
0.311101,-12,1684,8088,81,-33,-39
0.31124,10,1697,8124,12,-109,-1
0.311379,30,1648,8134,50,-33,-26
0.311519,28,1681,8051,37,-84,-26
0.311658,7,1690,8081,81,-71,12
0.311797,52,1773,8075,12,-84,-58
0.311936,3,1692,8028,63,-52,-7
0.312076,-14,1659,8071,56,-109,-32
0.312215,17,1685,8080,12,-26,25
0.312354,22,1672,8059,50,-115,-64
0.312494,-11,1652,8024,75,-90,-20
0.312633,6,1608,8045,19,-45,-1
0.312772,4,1702,8073,50,-84,-32
0.312912,13,1733,8132,-13,-52,6
0.313051,22,1734,8128,107,-109,-76
0.31319,-18,1651,8097,25,-71,12
0.31333,-21,1678,8049,19,-39,-20
0.313469,-43,1694,8084,75,-58,-32
0.313608,0,1653,8112,37,-71,-13
0.313749,13,1714,8085,37,-109,-7
0.313887,-24,1681,8025,37,-26,-32
0.314026,-12,1769,8059,69,-77,-26
0.314169,24,1685,8085,-25,-71,-20
0.314305,-6,1648,8096,113,-96,-39
0.314444,11,1677,8073,44,-77,-26
0.314584,-5,1705,8095,25,-52,18
0.314723,53,1708,8045,19,-64,-64
0.314862,36,1712,8055,88,-77,6
0.315002,6,1708,8083,25,-84,-32
0.31514,1,1684,8134,69,-52,12
0.31528,-4,1661,8078,6,-90,-26
0.315419,7,1682,8073,69,-52,-20
0.315559,-60,1640,8093,19,-84,-20
0.315698,-47,1634,8123,88,-90,-83
0.315837,3,1697,8051,-25,-58,31
0.315977,18,1656,8104,75,-45,-32
0.316116,23,1642,8116,75,-84,-51
0.316255,28,1684,8163,19,-103,-7
0.316396,10,1674,8141,50,-52,-13
0.316534,-5,1668,8097,63,-71,-70
0.316673,46,1658,8082,31,-58,44
0.316813,17,1631,8082,50,-90,-45
0.316952,15,1671,8051,19,-71,-26
0.317091,38,1670,8085,100,-58,-32
0.317231,4,1650,8098,12,-64,31
0.31737,33,1672,8083,63,-84,-83
0.317509,42,1693,8089,25,-84,12
0.317649,29,1682,8119,31,-84,6
0.317788,63,1684,8086,63,-13,-45
0.317927,10,1673,8073,63,-122,-26
0.318067,28,1675,8071,31,-64,-20
0.318206,-1,1644,8074,19,-77,-20
0.318345,-40,1687,8071,63,-64,-13
0.318485,-43,1646,8088,44,-64,-7
0.318624,20,1670,8057,6,-84,-1
0.318763,32,1698,8058,75,-64,-70
0.318902,-9,1686,8103,56,-90,6
0.319042,-10,1693,8098,0,-77,-20
0.319181,8,1679,8104,56,-77,-51
0.31932,11,1695,8092,44,-33,37
0.319461,5,1669,8164,50,-128,-76
0.319599,2,1664,8066,25,-33,12
0.319741,50,1681,8089,50,-90,-26
0.319879,-1,1658,8090,63,-52,-64
0.320017,-1,1704,8042,-32,-58,18
0.320156,-26,1665,8080,125,-84,-13
0.320297,-35,1666,8087,-7,-71,-20
0.320442,26,1676,8094,44,-77,-13
0.320575,17,1696,8124,75,-58,-45
0.320714,-48,1674,8150,-7,-58,12
0.320853,-24,1654,8092,44,-103,-13
0.320992,8,1678,8093,50,-58,-58
0.321132,4,1661,8095,31,-26,18
0.321272,3,1672,8077,25,-103,-39
0.32141,6,1700,8056,81,-39,-39
0.32155,3,1672,8079,-7,-39,18
0.32169,-37,1691,8088,75,-128,-51
0.321828,17,1723,8109,44,-26,-20
0.321968,-14,1672,8074,0,-84,-20
0.322107,11,1644,8087,75,-58,-7
0.322246,21,1707,8051,25,-84,-13
0.322386,-14,1665,8039,56,-90,-45
0.322526,22,1679,8044,37,-52,12
0.322666,28,1664,8082,44,-96,-39
0.322805,56,1674,8106,31,-90,-20
0.322943,40,1724,8140,44,-58,-7
0.323083,4,1678,8101,6,-58,-20
0.323221,-75,1630,8119,69,-77,-45
0.323362,-49,1626,8120,0,-71,12
0.3235,20,1682,8067,81,-33,-45
0.323639,-20,1661,8084,25,-84,6
0.323783,33,1687,8066,50,-84,-26
0.323924,18,1694,8126,44,-64,-39
0.324059,45,1728,8067,37,-77,-20
0.324197,33,1714,8110,6,-64,-26
0.324336,12,1703,8044,37,-90,-1
0.324475,-51,1715,8063,81,-64,-32
0.324615,-32,1678,8097,31,-58,-26
0.324754,28,1685,8077,50,-84,-26
0.324893,88,1697,8085,31,-52,-13
0.325032,27,1715,8047,31,-103,-26
0.325172,40,1698,8047,75,-58,-32
0.325311,-7,1663,8131,31,-71,-13
0.32545,33,1679,8134,31,-103,-20
0.32559,8,1717,8107,63,-64,-51
0.325729,26,1674,8071,31,-45,18
0.325868,74,1671,8064,25,-71,-26
0.326008,-26,1676,8090,94,-64,-32
0.326147,29,1647,8087,31,-84,-26
0.326286,9,1673,8126,37,-103,-1
0.326426,17,1687,8121,44,-52,-39
0.326565,13,1719,8151,37,-71,-20
0.326704,10,1673,8075,56,-77,6
0.326844,-24,1696,8089,44,-96,-64
0.326983,0,1728,8123,63,-33,18
0.327122,41,1705,8033,31,-71,-26
0.327262,-5,1689,8097,63,-115,-45
0.327401,20,1678,8131,31,-64,-20
0.32754,60,1682,8074,31,-52,-13
0.327679,-12,1641,8081,31,-71,-20
0.327819,-3,1735,8100,56,-84,-1
0.327958,-13,1654,8094,69,-71,-51
0.328097,-41,1714,8090,0,-71,12
0.328237,-28,1656,8113,88,-77,-64
0.328378,-1,1643,8143,0,-33,50
0.328516,-3,1652,8096,37,-103,-89
0.328656,30,1679,8102,81,-64,-7
0.328795,26,1691,8124,19,-33,12
0.328933,-6,1631,8114,63,-109,-64
0.329073,-34,1677,8065,37,-58,25
0.329212,-11,1685,8012,44,-64,-64
0.329354,-15,1695,8104,25,-58,-1
0.329491,-2,1711,8129,31,-64,-51
0.329632,28,1666,8085,56,-77,-13
0.329769,29,1670,8096,12,-39,-13
0.329909,-50,1646,8057,75,-64,-13
0.330049,33,1698,8105,56,-103,-39
0.330187,17,1662,8080,6,-52,-32
0.330327,12,1650,8094,56,-71,-1
0.330467,48,1687,8056,31,-77,-39
0.330605,-17,1669,8112,25,-33,12
0.330745,36,1696,8095,81,-96,-39
0.330885,-2,1674,8054,50,-84,-51
0.331023,-8,1659,8088,25,-20,12
0.331163,40,1630,8015,19,-64,-26
0.331302,51,1694,8094,69,-90,-7
0.331441,29,1705,8091,6,-39,-39
0.331581,-1,1697,8053,69,-109,6
0.33172,-9,1758,8057,56,-52,-51
0.331861,60,1764,8044,12,-58,12
0.331999,29,1713,8098,56,-84,-64
0.332139,16,1659,8069,6,-39,-13
0.332279,22,1710,8103,63,-109,6
0.332417,-14,1651,8069,63,-77,-64
0.332556,-8,1641,8131,19,-33,18
0.332695,55,1636,8087,69,-77,-39
0.332834,16,1680,8066,56,-64,-26
0.332974,26,1732,8096,-19,-77,-1
0.333113,-53,1687,8086,100,-64,-83
0.333253,-7,1661,8110,31,-96,31
0.333392,29,1692,8128,63,-64,-51
0.333531,-29,1637,8102,31,-52,-20
0.333671,28,1720,8084,56,-77,6
0.33381,-1,1689,8072,31,-90,-45
0.333949,57,1678,8054,37,-58,-7
0.334088,30,1691,8126,44,-103,-51
0.334228,16,1672,8131,69,-71,-32
0.334367,36,1665,8092,6,-39,-13
0.334506,-61,1669,8134,75,-96,-26
0.334646,23,1648,8090,19,-52,-1
0.334785,-21,1709,8136,44,-71,-32
0.334924,-30,1698,8075,37,-77,-26
0.335064,41,1707,8030,69,-90,-7
0.335203,37,1740,8035,25,-52,-20
0.335342,7,1722,8044,50,-84,-13
0.335482,-17,1732,8091,63,-64,-32
0.335621,-58,1690,8099,19,-71,18
0.33576,-15,1707,8074,25,-64,-39
0.335899,21,1669,8126,81,-84,-39
0.336039,0,1685,8103,6,-84,-26
0.336178,22,1711,8041,94,-45,-26
0.336317,-1,1712,8060,0,-96,-7
0.336457,18,1706,8081,63,-52,-39
0.336596,49,1667,8087,37,-84,-20
0.336735,26,1670,8071,37,-84,-26
0.336875,-11,1671,8070,50,-58,-7
0.337014,14,1626,8088,63,-77,-20
0.337153,15,1609,8126,44,-84,-39
0.337293,-12,1669,8113,0,-45,12
0.337432,-13,1709,8058,94,-115,-51
0.337571,-55,1704,8056,12,-71,-32
0.337713,7,1705,8107,44,-45,-1
0.337851,-9,1643,8086,37,-109,-39
0.337989,71,1738,8100,37,-52,18
0.338131,2,1665,8099,50,-77,-64
0.338268,53,1672,8104,50,-90,-1
0.338407,21,1699,8100,19,-39,-26
0.338547,30,1697,8049,75,-103,-32
0.338687,42,1722,8061,0,-71,-45
0.338825,1,1652,8059,44,-64,18
0.338965,-38,1660,8052,63,-77,-58
0.339105,-87,1709,8044,0,-45,18
0.339243,-22,1744,8036,56,-84,-51
0.339382,-43,1694,8048,50,-84,-32
0.339522,44,1674,8120,25,-45,-1
0.339661,43,1631,8130,56,-109,-51
0.339801,7,1680,8070,50,-13,6
0.33994,39,1672,8112,31,-122,-45
0.340079,-23,1657,8048,50,-52,-7
0.340219,-8,1687,8090,37,-39,-26
0.340358,-38,1678,8117,25,-122,-7
0.340497,81,1736,8037,75,-71,-51
0.340636,-28,1681,8056,12,-33,6
0.340776,17,1667,8089,56,-77,-26
0.340915,20,1719,8133,44,-77,-20
0.341054,17,1672,8112,31,-84,-32
0.341194,-32,1729,8120,69,-84,-26
0.341333,-44,1708,8089,56,-64,-39
0.341474,11,1683,8064,37,-71,-1
0.341612,-42,1681,8115,44,-77,-7
0.341752,11,1660,8088,63,-84,-39
0.341892,67,1734,8046,44,-64,-20
0.34203,-1,1728,8018,81,-115,-32
0.342169,-2,1706,8068,19,-39,6
0.342308,-7,1713,8057,56,-58,-32
0.342447,-2,1699,8076,69,-96,-7
0.342587,9,1682,8106,25,-77,-45
0.342726,29,1723,8118,31,-58,-7
0.342865,-32,1682,8120,56,-45,-32
0.343005,-21,1719,8069,37,-115,-39
0.343144,-32,1639,8091,44,-45,-7
0.343284,22,1659,8135,69,-77,-20
0.343423,2,1692,8126,25,-77,-51
0.343563,-19,1691,8126,25,-52,25
0.343702,36,1734,8118,81,-71,-20
0.343841,16,1707,8122,37,-64,-39
0.343981,41,1726,8130,-7,-52,-13
0.344119,-8,1645,8140,81,-128,-26
0.344259,-2,1672,8080,6,-26,-13
0.344399,14,1719,8021,37,-84,-7
0.344537,55,1637,8035,81,-84,-51
0.344678,-10,1665,8086,-19,-52,-7
0.344816,-2,1694,8056,63,-45,12
0.344955,11,1727,8021,56,-77,-70
0.345096,66,1703,8037,0,-71,-1
0.345234,38,1718,8049,56,-90,-32
0.345377,12,1726,8072,25,-52,-20
0.345512,-12,1668,8088,81,-45,-13
0.345652,60,1684,8124,19,-115,-13
0.345791,38,1662,8080,56,-45,-7
0.345931,0,1679,8052,31,-64,-32
0.34607,39,1680,8157,31,-115,-32
0.34621,72,1694,8162,50,-33,-32
0.346349,25,1725,8122,6,-71,31
0.346488,-53,1703,8093,107,-71,-64
0.346628,-31,1639,8073,25,-71,-7
0.346766,11,1647,8062,56,-64,-26
0.346906,-16,1706,8043,6,-64,-13
0.347045,-49,1732,8091,44,-58,-39
0.347185,-8,1690,8101,44,-71,12
0.347324,11,1689,8087,69,-90,-26
0.347463,-14,1695,8099,19,-58,-26
0.347602,-71,1690,8078,69,-96,-13
0.347742,-16,1686,8058,37,-52,-32
0.347881,15,1652,8088,44,-84,-20
0.34802,20,1655,8046,56,-52,-39
0.34816,43,1676,8044,44,-84,-13
0.348299,16,1730,8075,56,-58,12
0.348438,50,1700,8077,12,-64,-26
0.348578,-7,1707,8104,69,-109,-64
0.348717,16,1718,8089,31,-39,12
0.348856,-15,1666,8066,19,-84,-39
0.348996,-61,1653,8083,63,-84,-1
0.349135,76,1684,8116,63,-52,-45
0.349274,29,1694,8097,25,-64,-7
0.349414,17,1714,8083,63,-84,-26
0.349553,4,1680,8102,12,-52,-13
0.349692,42,1723,8076,69,-109,-45
0.349832,26,1740,8104,12,-20,25
0.349971,20,1670,8107,69,-128,-64
0.35011,38,1664,8062,44,-45,-26
0.35025,61,1757,8059,19,-77,25
0.350389,-43,1696,8130,63,-71,-83
0.350528,-34,1672,8087,12,-71,31
0.350668,18,1674,8130,88,-52,-70
0.350807,-35,1732,8092,-13,-128,-7
0.350946,41,1685,8098,44,-1,6
0.35109,24,1669,8077,94,-109,-39
0.351225,11,1644,8067,25,-71,-39
0.351364,25,1735,8046,37,-64,-13
0.351504,0,1699,8061,12,-52,-20
0.351644,-54,1718,8086,88,-77,-13
0.351782,-16,1675,8080,0,-77,-39
0.351921,7,1666,8057,81,-90,-20
0.352061,22,1738,7996,37,-33,-7
0.3522,27,1707,8011,37,-90,-32
0.352339,17,1678,8071,69,-39,-26
0.352478,12,1667,8016,0,-64,-1
0.352618,-23,1650,8051,63,-122,-45
0.352757,-5,1636,8069,94,-64,-39
0.352896,3,1668,8042,-13,-45,6
0.353036,30,1627,8059,50,-71,-13
0.353175,-19,1656,8087,63,-64,-26
0.353314,-54,1669,8069,44,-58,-26
0.353455,1,1698,8101,69,-103,-26
0.353594,13,1699,8101,31,-58,-20
0.353732,2,1672,8056,31,-84,6
0.353872,13,1688,8111,50,-52,-26
0.354011,31,1745,8120,50,-84,-45
0.354152,-22,1739,8072,12,-77,-26
0.35429,13,1659,8055,37,-58,-7
0.354429,52,1685,8097,69,-64,-7
0.354568,26,1715,8038,75,-103,-51
0.354709,7,1707,8086,-7,-45,-7
0.354847,-41,1714,8093,50,-26,-20
0.354987,46,1680,8064,56,-122,-32
0.355126,-8,1660,8072,6,-26,12
0.355265,-33,1755,8083,31,-64,-64
0.355405,42,1721,8067,56,-77,18
0.355544,58,1633,8045,69,-90,-64
0.355683,49,1690,8074,-19,-39,37
0.355822,23,1722,8092,81,-77,-39
0.355962,-11,1713,8106,25,-84,-39
0.356101,16,1702,8124,63,-84,-7
0.35624,-11,1700,8115,12,-64,-39
0.35638,-1,1701,8067,81,-64,-13
0.356519,69,1676,8089,-7,-90,-13
0.35666,-15,1650,8112,44,-39,6
0.356798,40,1667,8068,50,-84,-51
0.356937,32,1700,8055,75,-96,-20
0.357076,-4,1655,8103,6,-26,-20
0.357217,-4,1647,8098,19,-115,-7
0.357355,-4,1702,8080,100,-64,-51
0.357494,2,1672,8100,6,-39,-20
0.357634,-17,1656,8085,37,-84,-1
0.357773,45,1702,8098,81,-58,-83
0.357912,11,1632,8107,-7,-45,37
0.358051,19,1695,8118,88,-109,-51
0.358191,10,1705,8086,-7,-39,-13
0.35833,24,1710,8017,94,-109,-13
0.358469,45,1737,8094,31,-26,-20
0.358609,24,1674,8088,37,-109,-32
0.358748,0,1696,7995,50,-58,-26
0.358888,-21,1744,8057,50,-77,-39
0.359027,21,1694,8120,63,-77,18
0.359166,42,1686,8085,-13,-39,-45
0.359305,-19,1642,8110,75,-103,-7
0.359445,3,1689,8125,44,-64,-39
0.359584,-27,1681,8085,56,-90,-26
0.359723,-35,1669,8087,6,-71,-7
0.359863,7,1674,8102,75,-33,-32
0.360002,-12,1646,8088,50,-109,-39
0.360141,5,1698,8060,69,-96,-1
0.360281,16,1673,8071,12,-13,-26
0.36042,8,1645,8090,63,-141,-13
0.360559,70,1702,8099,50,-33,-32
0.360699,34,1772,8134,12,-77,-7
0.360838,-13,1689,8084,56,-90,-51
0.360977,28,1681,8025,25,-45,18
0.361117,-8,1694,8071,63,-71,-51
0.361256,13,1672,8080,12,-77,-1
0.361396,40,1673,8041,81,-84,-32
0.361535,-12,1669,8074,31,-71,-7
0.361674,3,1711,8076,31,-52,-13
0.361814,3,1639,8143,75,-96,-51
0.361952,86,1650,8137,0,-20,25
0.362093,16,1661,8094,88,-90,-26
0.362232,32,1713,8109,25,-77,-32
0.36237,-18,1678,8112,56,-77,-20
0.362509,-35,1681,8142,50,-45,-26
0.362649,12,1651,8084,56,-122,-20
0.362788,-24,1652,8080,44,-64,-51
0.362927,19,1684,8084,25,-58,31
0.363067,1,1655,8093,81,-84,-58
0.363206,0,1723,8121,19,-58,12
0.363345,3,1711,8075,50,-103,-64
0.363485,-34,1682,8117,63,-58,44
0.363624,-17,1662,8093,12,-90,-70
0.363763,-4,1665,8046,50,-64,-1
0.363904,24,1724,8105,75,-77,-26
0.364043,-9,1686,8116,0,-84,6
0.364181,21,1667,8063,50,-33,-45
0.364321,-22,1656,8056,50,-84,31
0.36446,37,1716,8055,56,-58,-89
0.364599,-15,1767,8047,31,-84,-7
0.36474,-17,1721,8034,37,-39,12
0.364878,40,1640,8086,37,-84,-58
0.365018,6,1695,8109,50,-45,6
0.365157,36,1702,8069,25,-77,-39
0.365296,-16,1658,8097,63,-115,12
0.365435,-43,1663,8116,12,-1,-39
0.365575,-1,1669,8131,63,-128,-39
0.365714,49,1702,8120,44,-33,-13
0.365853,0,1697,8101,12,-90,6
0.365993,-53,1670,8125,56,-71,-32
0.366132,15,1705,8050,81,-77,-45
0.366271,7,1631,8066,19,-64,-1
0.366411,16,1651,8071,69,-64,-39
0.36655,30,1745,8138,6,-71,-13
0.366689,0,1677,8088,63,-84,-7
0.366829,-22,1686,8094,75,-58,-39
0.366968,-67,1653,8083,-7,-45,-7
0.367107,19,1674,8019,75,-115,-26
0.367247,55,1671,8067,31,-58,-20
0.367386,23,1698,8064,56,-71,-58
0.367525,19,1668,8098,6,-58,37
0.367665,-36,1688,8121,94,-84,-76
0.367804,-6,1677,8110,0,-64,6
0.367943,11,1643,8151,75,-77,-20
0.368082,-47,1689,8076,12,-58,-13
0.368222,9,1671,8085,81,-90,-39
0.368361,7,1648,8123,31,-84,-26
0.3685,30,1693,8106,31,-58,-20
0.36864,13,1732,8097,50,-58,-45
0.368779,-29,1658,8089,25,-77,-1
0.368918,16,1680,8070,50,-77,-13
0.369057,-14,1714,8096,63,-90,-64
0.369197,63,1696,8083,31,-58,-1
0.369336,35,1670,8072,50,-96,-1
0.369476,5,1745,8055,19,-45,-39
0.369615,40,1669,8088,69,-77,-26
0.369754,23,1703,8085,56,-64,-26
0.369894,4,1686,8100,25,-96,-32
0.370033,-23,1710,8134,44,-39,-1
0.370172,-5,1686,8119,19,-71,-20
0.370312,-15,1671,8074,81,-90,-58
0.370451,19,1654,8065,25,-52,18
0.370591,13,1679,8011,63,-71,-45
0.370729,56,1709,8094,56,-64,-26
0.370869,-18,1693,8134,-7,-77,-7
0.371008,-75,1626,8095,107,-71,-45
0.371148,-34,1684,8100,-13,-71,-20
0.37129,25,1719,8088,81,-45,6
0.371426,28,1740,8086,44,-103,-58
0.371565,13,1727,8131,31,-20,12
0.371707,-23,1713,8057,56,-90,-39
0.371844,48,1682,8083,25,-45,-7
0.371986,78,1669,8043,56,-77,-20
0.372123,-14,1668,8068,0,-58,-32
0.372262,3,1653,8081,69,-39,12
0.372401,-44,1707,8095,69,-128,-51
0.372541,-8,1709,8098,25,-45,-26
0.37268,19,1656,8066,50,-39,12
0.372819,24,1616,8090,81,-128,-83
0.372958,16,1678,8093,19,-77,18
0.373098,-9,1721,8050,25,-7,-39
0.373237,-21,1696,8062,88,-103,-7
0.373376,-26,1624,8121,19,-52,-20
0.373516,-34,1682,8083,44,-96,-39
0.373656,12,1695,8068,37,-39,-13
0.373795,43,1680,8093,63,-71,-32
0.373934,44,1735,8054,50,-90,-32
0.374073,45,1687,8117,6,-71,-13
0.374212,16,1645,8148,37,-26,6
0.374353,-14,1714,8114,81,-109,-70
0.374491,8,1671,8058,19,-58,18
0.37463,16,1664,8060,37,-77,-39
0.37477,25,1683,8035,44,-64,-1
0.374909,41,1686,8040,44,-90,-51
0.375048,-14,1670,8138,19,-33,-1
0.375189,9,1669,8100,63,-84,-45
0.375327,-21,1670,8097,50,-77,-26
0.375466,-16,1682,8070,31,-52,-20
0.375606,29,1660,8071,56,-84,-45
0.375745,44,1724,8120,31,-26,-1
0.375884,80,1715,8088,31,-122,-20
0.376025,7,1681,8094,50,-77,-51
0.376163,-24,1690,8085,25,-33,-13
0.376302,-3,1657,8099,63,-71,-26
0.376441,-50,1706,8087,19,-90,-26
0.376581,5,1711,8063,63,-45,-20
0.37672,-5,1669,8065,12,-77,-1
0.37686,-17,1657,8088,75,-77,-39
0.376999,35,1672,8127,31,-115,-32
0.377138,29,1679,8095,50,-52,-13
0.377278,0,1655,8113,25,-90,-20
0.377417,-37,1688,8110,25,-45,-13
0.377557,-5,1678,8079,44,-71,-20
0.377695,15,1671,8093,56,-77,-20
0.377835,41,1690,8085,69,-109,-51
0.377974,56,1671,8068,-25,-26,18
0.378113,-14,1615,8067,138,-39,-32
0.378253,-1,1670,8121,-25,-141,-1
0.378396,38,1688,8081,75,-33,-39
0.378531,16,1696,8083,19,-96,12
0.378671,18,1712,8091,31,-64,-64
0.37881,1,1700,8126,44,-64,31
0.37895,48,1684,8108,63,-90,-70
0.379089,-10,1704,8100,37,-71,12
0.379228,-26,1682,8108,31,-58,-1
0.379367,69,1678,8091,56,-103,-45
0.379507,28,1700,8039,31,-58,-1
0.379646,-24,1728,8056,25,-77,-45
0.379785,-38,1677,8109,69,-84,-20
0.379925,0,1656,8058,0,-52,18
0.380064,-7,1701,8064,69,-96,-58
0.380203,32,1692,8063,50,-77,-13
0.380343,23,1697,8092,44,-58,6
0.380482,11,1687,8046,44,-109,-32
0.380621,34,1644,8094,44,-39,-7
0.380761,-22,1673,8054,63,-103,-51
0.3809,31,1723,8106,37,-45,12
0.381039,-3,1701,8147,31,-52,-39
0.381178,28,1688,8077,44,-122,-20
0.381318,31,1717,8059,63,-64,-64
0.381457,63,1661,8052,37,-58,44
0.381599,-13,1655,8066,37,-90,-58
0.381736,-34,1663,8073,44,-26,-1
0.381875,18,1713,8075,63,-115,-45
0.382014,-21,1663,8109,31,-52,-13
0.382155,-61,1660,8116,31,-90,-1
0.382298,-15,1654,8139,63,-58,-39
0.382432,-11,1643,8108,50,-84,-20
0.382571,-7,1647,8029,25,-77,-13
0.382711,-18,1717,8126,25,-52,-26
0.38285,-21,1715,8088,88,-96,-51
0.382989,-33,1678,8053,19,-64,25
0.383129,20,1676,7994,44,-103,-20
0.383269,29,1659,8079,44,-52,-58
0.383408,-28,1742,8104,37,-71,6
0.383547,21,1704,8088,44,-64,-32
0.383687,44,1674,8063,44,-45,6
0.383827,17,1670,8055,37,-77,-7
0.383965,34,1705,8042,81,-109,-70
0.384104,7,1676,8115,-7,-33,6
0.384243,-18,1693,8122,56,-77,-32
0.384383,0,1665,8078,25,-52,-1
0.384522,21,1697,8060,75,-96,-13
0.384662,-24,1709,8077,31,-64,-39
0.384801,9,1664,8075,19,-71,-32
0.38494,64,1734,8075,50,-52,6
0.38508,21,1732,8096,50,-84,-13
0.385219,48,1766,8041,31,-58,-45
0.385358,17,1728,8085,31,-77,-7
0.385497,-30,1675,8103,63,-64,-13
0.385637,-16,1743,8069,-19,-71,-39
0.385776,-35,1647,8144,100,-109,-45
0.385915,-33,1698,8121,31,-7,12
0.386056,55,1655,8153,25,-128,-32
0.386194,24,1751,8129,63,-58,-7
0.386333,16,1670,8079,50,-64,-58
0.386473,4,1694,8103,25,-71,-1
0.386612,26,1723,8090,25,-71,-7
0.386751,11,1684,8086,69,-90,-26
0.386891,-79,1674,8060,31,-33,-51
0.38703,28,1717,8055,44,-115,25
0.387169,8,1711,8060,37,-39,-26
0.387309,15,1655,8078,31,-64,-26
0.387448,13,1702,8058,56,-84,-26
0.387587,61,1746,8062,31,-52,-13
0.387727,-10,1740,8119,81,-64,-13
0.387866,10,1621,8080,25,-96,-45
0.388005,18,1686,8053,44,-45,-7
0.388145,-3,1668,8069,19,-71,6
0.388284,-72,1708,8093,50,-84,-51
0.388423,-28,1696,8052,63,-64,-13
0.388562,-30,1677,8092,12,-90,-13
0.388702,33,1669,8134,31,-45,-26
0.388841,32,1696,8081,75,-90,-26
0.38898,13,1683,8067,50,-52,-20
0.38912,21,1661,8110,19,-96,-13
0.389259,37,1703,8070,69,-90,-32
0.389398,9,1619,8094,-13,-33,-20
0.389538,8,1659,8105,56,-90,-20
0.389677,22,1687,8119,69,-77,-32
0.389816,28,1660,8093,56,-52,12
0.389956,-44,1668,8088,-13,-71,-39
0.390095,3,1665,8104,81,-109,-26
0.390234,-37,1678,8081,25,-45,-1
0.390374,7,1706,8114,37,-84,-26
0.390513,-2,1742,8095,44,-64,-1
0.390652,7,1695,8100,31,-64,-51
0.390792,28,1674,8051,56,-64,18
0.390931,34,1664,8088,12,-77,-51
0.39107,37,1700,8131,44,-33,-1
0.391209,12,1654,8112,63,-122,-58
0.391349,-8,1661,8106,37,-26,-1
0.391488,-10,1736,8091,75,-122,-32
0.391627,20,1722,8086,19,-26,6
0.391767,-2,1714,8100,37,-90,-51
0.391906,58,1734,8040,50,-58,-20
0.392045,-3,1669,8110,31,-71,6
0.392186,-14,1692,8092,56,-77,-26
0.392324,40,1674,8100,37,-77,-20
0.392463,28,1660,8094,-7,-64,-13
0.392602,16,1672,8061,81,-77,-70
0.392742,16,1663,8126,44,-77,37
0.392881,23,1638,8120,25,-45,-39
0.39302,1,1658,8120,75,-71,-58
0.393161,7,1710,8114,25,-39,12
0.393299,24,1744,8095,44,-115,-32
0.39344,17,1722,8057,31,-39,-26
0.393578,-39,1685,8094,56,-58,-20
0.393718,4,1668,8073,56,-90,-32
0.393858,20,1650,8040,19,-103,-7
0.393996,-47,1732,8124,50,-58,-26
0.394135,56,1722,8101,37,-45,-7
0.394274,-12,1662,8077,56,-103,-32
0.394414,-66,1679,8070,31,-64,-20
0.394555,-31,1659,8095,50,-64,-7
0.394692,14,1714,8099,25,-58,-20
0.394832,14,1722,8083,75,-96,-20
0.394971,-41,1678,8090,44,-71,-32
0.39511,20,1659,8063,25,-96,-26
0.39525,-36,1665,8113,56,-58,-39
0.39539,-11,1674,8121,12,-64,6
0.395529,1,1686,8083,69,-52,-26
0.395668,28,1673,8110,56,-103,-26
0.395807,4,1678,8105,25,-45,-20
0.395946,-15,1698,8086,44,-109,-39
0.396086,-31,1638,8068,37,-90,-13
0.396225,55,1667,8056,50,-39,-13
0.396364,81,1671,8115,25,-109,-26
0.396504,60,1664,8084,56,-52,-7
0.396643,70,1640,7999,56,-64,-32
0.396782,8,1672,8033,56,-84,-32
0.396922,-63,1695,8059,25,-71,37
0.397061,-27,1689,8058,31,-71,-58
0.3972,42,1654,8049,44,-90,-26
0.397339,62,1684,8085,50,-45,12
0.397479,36,1720,8080,37,-90,-83
0.397618,27,1670,8075,63,-71,25
0.397757,17,1708,8112,6,-64,-1
0.397897,-22,1687,8102,75,-77,-64
0.398036,11,1738,8089,0,-45,6
0.398175,-33,1696,8086,56,-103,-45
0.398315,44,1653,8062,75,-45,-7
0.398454,40,1661,8096,44,-122,-32
0.398593,-35,1689,8123,6,-26,12
0.398733,-16,1673,8047,69,-128,-51
0.398872,23,1681,8024,25,-39,-20
0.399011,-5,1719,8068,31,-71,6
0.399151,-6,1666,8107,75,-77,-32
0.39929,-16,1675,8141,25,-45,-13
0.399429,-11,1714,8139,88,-71,-20
0.399569,-15,1698,8111,19,-103,-39
0.399708,7,1671,8083,44,-26,18
0.399847,-17,1664,8164,81,-96,-51
0.399987,-4,1648,8079,0,-71,-1
0.400126,33,1707,8123,81,-84,-51
0.400269,69,1724,8046,31,-39,-7
0.400405,-42,1681,8112,50,-109,-32
0.400544,-6,1616,8133,19,-26,12
0.400683,28,1660,8110,50,-96,-45
0.400822,6,1735,8066,25,-39,6
0.400962,-12,1666,8089,56,-96,-20
0.401101,6,1679,8059,56,-103,-58
0.40124,23,1657,8082,31,-33,-20
0.40138,-30,1672,8124,69,-71,6
0.401519,-39,1686,8041,19,-90,12
0.401658,1,1698,8033,63,-33,-39
0.401798,11,1699,8091,37,-135,-76
0.401937,4,1684,8083,12,-26,56
0.402076,28,1658,8122,69,-103,-89
0.402216,-26,1684,8126,44,-52,25
0.402355,-26,1679,8109,56,-109,-76
0.402494,32,1687,8115,12,-33,31
0.402634,52,1730,8126,50,-58,-45
0.402773,21,1750,8108,88,-84,-26
0.402912,-40,1698,8073,0,-90,-20
0.403052,-20,1686,8088,25,-64,6
0.403191,53,1700,8061,50,-71,-45
0.40333,9,1658,8111,56,-71,-45
0.40347,-3,1681,8117,44,-84,12
0.403609,14,1648,8102,37,-45,-45
0.403748,4,1679,8070,44,-84,-7
0.403888,2,1674,8048,12,-77,-7
0.404027,41,1696,8062,88,-64,-26
0.404166,47,1684,8087,-13,-52,-26
0.404305,23,1672,8107,88,-96,-7
0.404445,36,1698,8083,25,-84,-51
0.404584,-16,1716,8114,31,-52,-1
0.404723,-4,1628,8112,50,-84,-20
0.404863,0,1663,8072,0,-52,-39
0.405002,10,1729,8059,100,-84,-1
0.405141,-24,1659,8082,-13,-58,-51
0.405281,1,1657,8108,81,-71,12
0.40542,-19,1671,8105,44,-96,-51
0.405559,27,1643,8051,56,-58,-13
0.405699,55,1661,8043,50,-71,-26
0.405838,6,1682,8101,31,-77,-39
0.405977,60,1730,8069,44,-77,12
0.406117,-21,1712,8064,56,-71,-45
0.406256,-26,1680,8119,37,-84,-13
0.406396,11,1708,8118,37,-39,12
0.406535,20,1701,8027,63,-141,-95
0.406674,-38,1659,8022,25,-7,44
0.406813,24,1652,8065,69,-96,-45
0.406953,33,1724,8082,37,-58,-32
0.407092,-49,1690,8071,19,-71,-20
0.407231,4,1692,8077,81,-96,-20
0.40737,-1,1677,8061,25,-33,12
0.40751,-24,1655,8037,31,-90,-39
0.407649,1,1681,8065,50,-77,-13
0.407788,16,1781,7986,69,-58,-39
0.407928,32,1698,8038,6,-77,-1
0.408067,-1,1673,8077,75,-58,-13
0.408206,17,1722,8108,37,-90,-39
0.408346,-38,1697,8102,63,-58,-26
0.408485,-9,1664,8027,12,-45,-7
0.408624,46,1656,8119,63,-96,-45
0.408764,3,1704,8069,44,-52,12
0.408903,23,1685,8078,44,-90,-83
0.409042,-44,1691,8124,44,-77,31
0.409182,17,1684,8122,44,-39,-1
0.409321,-33,1678,8067,37,-96,-20
0.40946,-40,1681,8055,50,-90,-45
0.4096,-24,1678,8047,50,-45,-26
0.409739,-5,1657,8132,44,-90,-1
0.409878,-13,1679,8123,44,-84,-32
0.410018,14,1698,8147,19,-39,-1
0.410157,42,1703,8056,63,-96,-26
0.410296,9,1748,8115,44,-77,-39
0.410436,32,1689,8070,37,-58,-7
0.410575,-25,1665,8108,44,-64,-26
0.410714,-32,1652,8098,50,-90,-20
0.410853,-6,1719,8026,31,-58,-26
0.410993,-40,1679,8042,81,-71,-20
0.411132,-81,1686,8073,25,-96,-39
0.411271,-15,1667,8118,12,-52,50
0.411411,-30,1677,8062,75,-103,-76
0.41155,-11,1705,8046,19,-58,-7
0.411689,66,1686,8076,56,-71,-13
0.411829,-1,1698,8126,44,-84,-39
0.411968,10,1717,8138,31,-52,12
0.412107,25,1647,8109,69,-96,-64
0.412247,51,1650,8077,31,-52,-20
0.412386,10,1705,8048,50,-64,-20
0.412525,1,1610,8053,31,-84,-1
0.412665,34,1721,8057,19,-52,-26
0.412804,24,1740,8113,100,-96,-45
0.412943,7,1672,8126,6,-26,-1
0.413083,4,1706,8111,56,-109,-26
0.413222,-17,1731,8085,19,-64,-1
0.413361,8,1630,8122,94,-71,-51
0.413502,-7,1675,8079,-7,-84,-13
0.41364,6,1627,8052,69,-58,6
0.413779,61,1653,8073,44,-90,-58
0.413919,-5,1672,8152,31,-39,-13
0.414058,-2,1717,8085,37,-103,-1
0.414197,-20,1679,8095,50,-58,-20
0.414336,0,1687,8018,25,-52,-45
0.414476,54,1669,8078,50,-109,-13
0.414615,13,1699,8078,25,-45,6
0.414754,-14,1678,8072,81,-58,-51
0.414894,34,1685,8095,44,-77,-7
0.415033,3,1684,8111,12,-90,-26
0.415172,-24,1667,8070,63,-64,-26
0.415312,-6,1639,8071,69,-90,-26
0.415451,-5,1623,8089,6,-39,-13
0.41559,59,1619,8094,44,-116,-45
0.41573,49,1708,8086,44,-20,12
0.415869,6,1697,8123,31,-103,-20
0.416008,26,1664,8121,56,-52,-39
0.416148,-21,1706,8066,37,-103,-32
0.416287,20,1654,8116,75,-52,6
0.416426,32,1688,8093,19,-96,-51
0.416566,-9,1685,8084,31,-58,-1
0.416705,16,1720,8085,69,-52,-45
0.416844,9,1710,8067,37,-128,-32
0.416984,8,1643,8091,37,-20,-13
0.417123,-1,1657,8106,37,-71,-1
0.417264,34,1698,8110,37,-122,-45
0.417402,-3,1631,8134,31,-45,-7
0.417541,13,1635,8115,63,-39,-20
0.41768,39,1712,8104,37,-109,-26
0.417819,-10,1671,8087,50,-64,-26
0.417959,-41,1616,8107,75,-84,-26
0.418098,26,1671,8040,50,-52,-39
0.418238,-20,1698,8107,-19,-77,44
0.418377,43,1659,8156,63,-77,-70
0.418516,40,1693,8039,44,-45,-26
0.418655,-41,1725,8115,37,-84,6
0.418795,38,1727,8109,75,-103,-51
0.418934,45,1718,8044,37,-58,-20
0.419073,36,1710,8073,37,-58,-1
0.419213,2,1642,8144,56,-103,-26
0.419352,-24,1621,8106,44,-33,-26
0.419493,2,1657,8025,25,-84,-1
0.419631,1,1710,8103,94,-96,-39
0.41977,32,1670,8063,-13,-39,-13
0.419911,53,1676,8041,63,-71,-26
0.420048,-1,1731,8139,19,-71,-26
0.420189,-19,1647,8137,37,-71,-7
0.420327,-41,1705,8100,69,-71,-32
0.420468,-24,1712,8086,12,-64,-20
0.420606,52,1646,8023,88,-84,-39
0.420745,23,1697,8081,-13,-33,-20
0.420885,-72,1694,8100,75,-109,-20
0.421025,-2,1710,8050,19,-58,-7
0.421163,-6,1696,8079,56,-84,-45
0.421302,-14,1704,8103,6,-52,-20
0.421442,4,1682,8094,69,-96,-26
0.421581,47,1745,8146,12,-33,-1
0.421722,33,1732,8116,25,-77,-58
0.42186,6,1677,8124,44,-52,12
0.421999,19,1698,8052,94,-103,-70
0.422141,6,1702,8114,-32,-58,6
0.422278,3,1650,8105,63,-45,-26
0.422417,68,1678,8100,56,-64,-39
0.422557,8,1711,8065,19,-58,-1
0.422696,40,1704,8103,69,-103,-45
0.422835,32,1693,8081,50,-33,-20
0.422974,-1,1697,8089,0,-71,-45
0.423114,5,1695,8126,94,-90,44
0.423254,13,1659,8098,-7,-26,-39
0.423396,19,1707,8045,69,-90,-26
0.423531,-17,1715,8118,31,-52,-13
0.423671,29,1726,8092,56,-58,-39
0.42381,27,1673,8127,25,-84,-32
0.423949,-30,1712,8118,50,-71,18
0.42409,2,1678,8060,56,-71,-45
0.424228,1,1651,8021,-7,-58,-1
0.424368,50,1731,8041,75,-77,-58
0.424507,24,1663,8146,56,-77,12
0.424647,-12,1698,8115,19,-71,-39
0.424785,-8,1698,8078,69,-77,-20
0.424925,21,1722,8068,63,-77,-20
0.425064,2,1721,8082,19,-64,-26
0.425203,39,1717,8029,50,-84,12
0.425343,8,1694,8103,31,-71,-51
0.425482,32,1697,8077,63,-58,-26
0.425621,34,1689,8089,50,-90,-20
0.425761,6,1680,8060,25,-64,-39
0.4259,-26,1693,8048,88,-103,-26
0.426039,58,1669,8045,-7,-45,25
0.426179,3,1685,8058,63,-90,-83
0.426318,23,1740,8104,44,-45,12
0.426457,-21,1693,8102,25,-135,-26
0.426596,-8,1673,8073,37,-45,-7
0.426737,23,1707,8057,56,-71,-39
0.426875,8,1628,8114,69,-96,-13
0.427014,-6,1663,8117,12,-26,6
0.427155,8,1698,8063,63,-116,-39
0.427293,-17,1665,8057,44,-64,-39
0.427432,75,1647,8112,19,-58,-1
0.427572,16,1628,8088,81,-71,-20
0.427712,12,1651,8106,12,-90,-20
0.427852,9,1619,8127,31,-39,-1
0.42799,7,1682,8107,63,-128,-70
0.428129,-1,1738,8110,37,-33,6
0.428268,33,1715,8106,25,-58,-13
0.428408,49,1674,8094,69,-84,-7
0.428547,-20,1716,8094,31,-77,-45
0.428686,19,1672,8108,69,-58,-39
0.428826,36,1717,8081,25,-58,6
0.428965,12,1683,8075,31,-71,-13
0.429104,45,1681,8037,63,-58,-64
0.429246,22,1625,8103,50,-77,-20
0.429383,-37,1719,8079,19,-52,37
0.429522,-19,1630,8038,31,-84,-95
0.429663,13,1665,8080,69,-58,-7
0.429801,11,1652,8083,37,-84,-20
0.42994,-15,1655,8061,25,-20,-7
0.430081,-32,1623,8115,63,-84,-45
0.430219,18,1696,8118,37,-71,-13
0.430359,44,1735,8073,44,-58,-26
0.4305,48,1711,8064,12,-58,-13
0.430637,4,1708,8097,50,-71,-13
0.430777,11,1695,8060,37,-64,-20
0.430917,13,1693,8078,37,-71,-32
0.431057,-17,1745,8056,44,-45,-20
0.431194,-34,1719,8074,31,-84,-13
0.431333,6,1714,8069,25,-39,-13
0.431473,18,1703,8102,50,-128,-64
0.431614,3,1666,8106,25,-33,31
0.431751,34,1645,8030,50,-77,-45
0.431892,-29,1681,8108,25,-77,-13
0.432031,52,1656,8102,25,-39,-1
0.432176,22,1691,8070,69,-58,-51
0.43231,18,1666,8065,31,-71,-1
0.432448,44,1714,8082,31,-84,-32
0.432587,41,1694,8085,50,-33,-26
0.432728,16,1693,8049,81,-141,-26
0.432866,-33,1674,8081,-19,-52,-26
0.433008,57,1700,8037,50,-20,-13
0.433146,15,1721,8040,37,-96,-1
0.433284,-10,1728,8063,63,-58,-45
0.433423,-24,1697,8166,31,-58,-13
0.433563,-28,1658,8133,63,-71,-20
0.433702,44,1722,8041,25,-122,-13
0.433842,4,1741,8081,19,-7,-32
0.43398,-17,1710,8049,94,-122,-26
0.43412,16,1620,8095,31,-84,12
0.434259,-4,1640,8071,37,-52,-76
0.434398,40,1680,8113,69,-77,25
0.434538,26,1669,8114,6,-45,-13
0.434678,-25,1689,8119,75,-96,-51
0.434818,-1,1672,8133,19,-58,25
0.434957,-12,1644,8094,69,-84,-26
0.435095,5,1665,8129,63,-77,-64
0.435234,-12,1682,8075,19,-64,31
0.435374,-6,1688,8063,44,-77,-20
0.435513,-24,1646,8168,69,-84,-45
0.435654,-1,1674,8115,12,-45,-1
0.435792,19,1677,8090,56,-84,-26
0.435931,2,1646,8118,37,-84,-26
0.43607,6,1637,8100,50,-71,-32
0.43621,-42,1656,8107,25,-26,12
0.436349,-59,1685,8094,69,-141,-51
0.436489,-22,1660,8083,6,-7,-1
0.436628,-47,1730,8112,44,-122,-13
0.436767,-37,1666,8105,25,-52,-32
0.436906,-30,1633,8075,63,-52,-26
0.437045,9,1640,8072,37,-116,-26
0.437185,-10,1675,8089,56,-39,-26
0.437324,-8,1685,8028,12,-84,-1
0.437464,9,1694,8051,44,-64,-20
0.437603,6,1674,8074,75,-96,-39
0.437742,29,1666,8124,31,-39,-26
0.437882,-8,1684,8084,37,-77,6
0.438021,30,1673,8081,56,-84,-45
0.43816,-12,1663,8058,12,-84,-26
0.4383,-48,1715,8083,56,-33,-1
0.438439,-3,1661,8127,69,-122,-64
0.438578,-26,1696,8080,31,-64,6
0.438718,-60,1642,8085,37,-58,-13
0.438857,52,1640,8103,81,-90,-39
0.438996,1,1722,8110,6,-58,-7
0.439135,31,1667,8137,44,-71,-39
0.439275,38,1693,8080,50,-77,-20
0.439414,20,1696,8133,50,-71,-39
0.439554,20,1751,8084,50,-52,25
0.439693,25,1698,8072,56,-84,-45
0.439832,38,1711,8104,37,-90,-13
0.439971,3,1692,8097,25,-64,-39
0.440111,-1,1748,8118,50,-52,6
0.440252,-47,1666,8133,50,-103,-20
0.440389,-8,1698,8119,31,-33,-26
0.440529,84,1727,8043,56,-84,-13
0.440668,60,1709,8075,25,-52,-26
0.440808,-14,1725,8092,63,-84,-1
0.440947,47,1666,8073,25,-84,-45
0.441086,47,1643,8052,31,-20,6
0.441225,3,1643,8087,69,-103,-26
0.441366,-4,1681,8079,12,-52,-26
0.441504,-10,1690,8054,63,-109,-32
0.441643,2,1724,8062,6,6,25
0.441783,1,1626,8062,37,-122,-26
0.441922,20,1691,8051,63,-77,-45
0.442061,-27,1675,8109,56,-64,-13
0.442201,-42,1684,8112,37,-64,-7
0.44234,-13,1633,8050,37,-71,-13
0.442481,4,1707,8093,63,-109,-64
0.442618,8,1726,8089,-7,-20,-7
0.442758,37,1687,8077,75,-96,-39
0.442897,-5,1688,8129,6,-45,37
0.443036,9,1713,8106,81,-84,-70
0.443176,56,1664,8073,25,-84,-26
0.443315,29,1717,8067,50,-52,6
0.443454,40,1683,8082,50,-103,-51
0.443593,52,1648,8157,50,-39,-7
0.443733,68,1703,8127,25,-109,-32
0.443872,-2,1700,8120,44,-33,-20
0.444011,14,1679,8178,50,-109,-1
0.444151,56,1717,8080,56,-64,-45
0.44429,14,1707,8078,12,-71,-58
0.444431,2,1640,8088,44,-84,25
0.44457,2,1693,8132,25,-71,-45
0.444709,30,1728,8074,94,-71,-13
0.444847,48,1684,8096,-25,-71,-20
0.444988,12,1720,8061,63,-84,-1
0.445126,-1,1672,8009,56,-71,-51
0.445265,68,1727,8085,44,-84,12
0.445405,71,1704,8143,-13,-45,-7
0.445544,19,1650,8100,132,-115,-76
0.445692,-43,1695,8075,6,-33,18
0.445823,-10,1701,8056,19,-84,-45
0.445963,19,1668,8101,37,-52,18
0.446102,16,1670,8093,75,-39,-51
0.446241,19,1665,8072,12,-141,-39
0.44638,-73,1737,8135,50,-45,25
0.446519,13,1706,8131,44,-71,-76
0.446659,36,1702,8131,19,-52,-1
0.446798,14,1708,8069,50,-71,-26
0.446938,28,1650,8054,19,-64,-13
0.447077,28,1676,8071,50,-71,-20
0.447217,46,1703,8106,75,-45,-45
0.447355,9,1744,8075,19,-96,-32
0.447495,55,1673,8108,69,-58,-7
0.447634,30,1673,8044,37,-64,-32
0.447774,-11,1720,8051,-7,-64,18
0.447912,26,1654,8031,81,-84,-51
0.448052,40,1673,8080,31,-64,-26
0.448192,111,1665,8126,31,-52,-7
0.448331,51,1719,8100,75,-52,-13
0.44847,7,1654,8085,25,-64,-39
0.448609,40,1696,8168,31,-90,-26
0.448749,-30,1680,8083,25,-45,6
0.448888,-12,1669,8062,81,-77,-45
0.449027,30,1663,8051,19,-71,-13
0.449167,3,1634,8084,100,-96,-26
0.449306,30,1712,8111,-7,-33,-32
0.449447,33,1694,8084,69,-77,12
0.449584,26,1706,8095,50,-90,-64
0.449724,38,1726,8074,31,-39,-1
0.449863,22,1709,8097,50,-71,-13
0.450002,15,1729,8066,44,-90,-39
0.450142,-31,1678,8076,25,-20,-1
0.450281,-24,1695,8121,75,-122,-58
0.45042,2,1646,8065,25,-26,25
0.45056,27,1696,8091,31,-90,-64
0.450699,35,1690,8011,69,-77,-13
0.450838,-9,1708,8010,56,-84,-32
0.450978,11,1702,8062,44,-52,-7
0.451117,57,1633,8070,12,-64,-13
0.451256,2,1618,8091,94,-122,-70
0.451396,31,1673,8091,-19,31,62
0.451535,-11,1675,8058,75,-147,-83
0.451674,-50,1692,8074,19,-58,-7
0.451814,60,1694,8074,50,-71,-32
0.451953,38,1737,8124,63,-71,12
0.452092,37,1636,8104,50,-77,-76
0.452232,37,1650,8081,37,-39,25
0.452371,37,1702,8094,44,-84,-7
0.452511,-30,1674,8095,31,-52,-45
0.452649,-4,1652,8090,37,-45,-20
0.452789,-25,1717,8116,75,-64,-7
0.452928,-22,1627,8114,37,-128,-20
0.453067,18,1691,8093,37,-45,-13
0.453207,5,1661,8112,56,-84,-45
0.453346,7,1651,8112,0,-45,6
0.453485,-6,1628,8112,69,-96,-45
0.453624,20,1659,8078,75,-71,-7
0.453764,16,1693,8073,37,-58,-7
0.453903,4,1638,8112,25,-77,-45
0.454042,-42,1660,8100,44,-58,-13
0.454182,-2,1700,8073,56,-71,-7
0.454321,21,1636,8153,31,-103,-39
0.454462,-52,1607,8103,56,-52,6
0.4546,-14,1653,8135,50,-90,-45
0.454739,-1,1720,8072,0,-39,-26
0.454879,-26,1735,8076,125,-109,-20
0.455019,9,1667,8099,0,-52,-26
0.455156,22,1679,8100,94,-58,-26
0.455296,-33,1647,8139,-38,-64,6
0.455436,37,1665,8082,88,-96,-39
0.455575,-16,1705,8121,50,-64,-20
0.455714,23,1651,8058,37,-90,-1
0.455855,11,1656,8044,12,-7,-7
0.455993,3,1700,8067,81,-128,-70
0.456132,-3,1702,8074,-13,-26,37
0.456273,-36,1684,8051,107,-109,-70
0.456411,40,1698,8051,19,-39,-7
0.456551,37,1736,8070,44,-64,6
0.45669,47,1711,8069,19,-77,-39
0.456829,52,1681,8112,88,-64,-20
0.456969,2,1706,8086,44,-96,-32
0.457108,-13,1676,8050,6,-13,-1
0.457247,10,1654,8081,94,-154,-39
0.457387,13,1638,8079,19,-39,-26
0.457526,-42,1674,8085,12,-77,44
0.457665,-18,1711,8052,81,-71,-76
0.457804,-14,1710,7991,12,-52,-13
0.457944,40,1642,8051,81,-109,-20
0.458085,58,1663,8070,-13,-26,12
0.458222,-2,1662,8119,69,-77,-45
0.458362,-9,1677,8074,37,-45,6
0.458502,14,1713,8130,44,-103,-51
0.45864,10,1670,8103,37,-64,-13
0.45878,15,1660,8088,25,-84,-1
0.458919,-53,1726,8085,81,-90,-70
0.459058,68,1746,8068,25,-52,37
0.459198,14,1667,8079,50,-71,-58
0.459337,-60,1657,8091,50,-84,-7
0.459476,-12,1664,8055,50,-96,-58
0.459616,10,1688,8051,31,-58,18
0.459755,62,1669,8083,6,-58,-45
0.459894,4,1708,8120,75,-77,-13
0.460033,15,1729,8091,12,-64,25
0.460173,-18,1720,8118,75,-109,-89
0.460312,-47,1723,8130,6,-26,-1
0.460452,-43,1641,8120,63,-71,12
0.460591,-12,1691,8058,44,-90,-58
0.46073,28,1676,8036,44,-45,6
0.460869,67,1671,8064,63,-116,-32
0.461009,-25,1677,8095,19,-52,-7
0.461148,0,1677,8067,44,-77,-45
0.461287,-30,1693,8104,25,-58,-7
0.461427,12,1718,8110,44,-90,-20
0.461566,43,1726,8081,63,-64,-45
0.461709,67,1645,8082,31,-39,-13
0.461845,-1,1665,8082,50,-90,-39
0.461984,52,1693,8068,50,-84,-20
0.462123,27,1712,8065,19,-45,6
0.462263,-8,1698,8043,56,-96,-64
0.462403,-4,1676,8034,19,-64,31
0.462541,31,1689,8084,56,-64,-45
0.46268,26,1698,8079,50,-71,-13
0.46282,24,1692,8081,25,-64,-13
0.462959,12,1687,8076,69,-77,-70
0.463098,24,1681,8096,6,-45,44
0.463238,46,1681,8102,75,-109,-39
0.463377,63,1698,8101,50,-77,-64
0.463516,3,1703,8077,12,-45,31
0.463656,-13,1734,8061,69,-52,-20
0.463795,35,1712,8108,0,-64,-45
0.463934,14,1657,8096,69,-77,-1
0.464073,-4,1687,8060,25,-20,-7
0.464213,23,1680,8095,94,-103,-83
0.464352,17,1669,8104,19,-96,18
0.464493,25,1670,8154,50,-26,-20
0.464631,44,1663,8100,19,-77,6
0.464772,-8,1647,8059,88,-103,-70
0.464911,-23,1666,8050,37,-45,18
0.465055,3,1627,8021,19,-90,-58
0.465188,-4,1706,8062,63,-45,6
0.465328,-64,1696,8048,31,-96,-39
0.465467,-53,1672,8043,44,-39,-32
0.465606,-105,1708,8073,37,-58,-20
0.465746,15,1691,8077,25,-90,12
0.465885,11,1642,8019,69,-77,-64
0.466025,33,1718,8074,50,-52,-13
0.466164,-23,1717,8141,12,-71,-20
0.466303,-7,1700,8066,69,-71,-20
0.466444,-40,1687,8063,31,-64,-32
0.466581,-1,1672,8100,-7,-58,6
0.466721,0,1622,8085,119,-116,-26
0.46686,32,1660,8087,-13,-39,-32
0.466999,-54,1678,8106,31,-64,18
0.46714,43,1696,8033,81,-84,-45
0.467278,39,1646,8057,6,-71,-39
0.467418,1,1699,8074,81,-84,-1
0.467557,15,1672,8083,-13,-52,-7
0.467696,3,1648,8118,107,-96,-45
0.467837,-21,1667,8090,6,-39,-1
0.467975,56,1688,8081,31,-58,-39
0.468114,70,1732,8101,37,-71,-1
0.468254,2,1674,8089,75,-84,-70
0.468399,9,1658,8081,37,-64,25
0.468532,73,1713,8062,63,-71,-64
0.468671,10,1713,8056,12,-77,-13
0.468811,-19,1694,8067,37,-58,18
0.46895,-26,1679,8097,25,-84,-32
0.469089,-1,1701,8063,107,-96,-76
0.469229,9,1707,8076,-7,-45,50
0.469368,-16,1605,8107,75,-64,-70
0.469507,-40,1650,8096,37,-96,-13
0.469646,-47,1707,8070,31,-64,-7
0.469786,-21,1673,8091,12,-71,-20
0.469925,-2,1671,8067,75,-90,-45
0.470065,-68,1668,8109,19,-52,-26
0.470204,52,1725,8106,25,-71,25
0.470343,3,1692,8063,81,-45,-45
0.470482,-22,1679,8102,6,-109,-39
0.470622,23,1674,8105,75,-52,-13
0.470761,7,1692,8124,6,-71,-1
0.4709,-50,1648,8113,50,-84,-51
0.47104,6,1674,8034,69,-90,-13
0.471179,36,1671,8032,44,-71,-32
0.471318,-17,1748,8075,25,-58,-13
0.471458,8,1660,8087,31,-96,-20
0.471597,-4,1677,8106,50,-71,-20
0.471736,22,1722,8043,37,-90,-39
0.471876,11,1713,8095,19,-52,12
0.472015,-42,1666,8088,88,-84,-58
0.472154,1,1645,8080,12,-71,12
0.472295,20,1682,8126,75,-77,-32
0.472433,-19,1692,8096,12,-64,-20
0.472572,9,1617,8109,88,-96,-45
0.472711,47,1705,8105,12,-58,-1
0.472851,16,1745,8094,19,-64,-13
0.47299,42,1712,8143,81,-84,-39
0.473129,45,1674,8083,19,-39,-32
0.473269,-8,1696,8111,56,-90,-13
0.473408,-38,1683,8092,44,-71,-7
0.473547,50,1699,8085,19,-64,-32
0.473687,31,1679,8116,63,-84,-32
0.473826,58,1674,8142,63,-71,-26
0.473965,3,1699,8105,31,-90,-26
0.474105,26,1697,8040,44,-26,25
0.474244,61,1660,8117,63,-77,-76
0.474385,12,1663,8095,0,-64,18
0.474523,-42,1685,8079,75,-96,-58
0.474663,4,1714,8108,50,-71,6
0.474801,48,1696,8104,19,-45,-7
0.474941,-37,1657,8067,56,-128,-51
0.47508,-6,1668,8119,12,-52,-1
0.475219,38,1657,8099,63,-58,-1
0.475359,39,1750,8093,63,-96,-45
0.475498,74,1721,8124,25,-58,-1
0.475637,-25,1675,8062,44,-52,-26
0.475778,2,1733,8065,63,-71,-45
0.475916,29,1721,8062,37,-96,-26
0.476056,-73,1688,8103,25,-52,12
0.476194,-93,1637,8142,50,-52,-1
0.476335,34,1658,8088,50,-77,-51
0.476473,49,1688,8070,56,-90,-13
0.476612,34,1646,8082,12,-64,-13
0.476752,39,1737,8051,81,-71,-39
0.476891,1,1728,8042,25,-71,-20
0.477031,7,1695,8075,25,-52,12
0.47717,-14,1677,8105,63,-103,-51
0.47731,-14,1720,8110,50,-64,6
0.477448,27,1670,8030,25,-77,-20
0.477588,38,1702,8035,81,-45,-51
0.477727,25,1725,8115,-19,-64,6
0.477866,4,1653,8109,69,-71,-26
0.478007,-15,1733,8101,31,-71,-26
0.478145,85,1742,8081,44,-58,-7
0.478284,8,1675,8128,44,-71,-32
0.478425,-29,1698,8075,44,-52,-7
0.478563,48,1693,8066,19,-71,-32
0.478702,-30,1674,8078,44,-58,-20
0.478841,48,1711,8115,69,-103,-32
0.478981,76,1692,8147,25,-33,6
0.47912,29,1693,8075,75,-77,-32
0.47926,-30,1680,8058,12,-71,-39
0.479399,-2,1708,8058,37,-71,-26
0.479538,-48,1702,8056,63,-52,-20
0.479677,7,1701,8077,63,-109,-39
0.479817,36,1705,8076,19,-58,-1
0.479956,-5,1677,8032,69,-96,-26
0.480095,18,1684,8081,37,-45,-20
0.480235,27,1724,8069,31,-71,6
0.480374,4,1690,8127,44,-71,-32
0.480513,65,1688,8151,19,-45,-20
0.480658,30,1709,8089,75,-71,-32
0.480792,-19,1707,8079,19,-77,-1
0.480931,13,1663,8083,44,-64,-64
0.48107,-48,1679,8102,6,-58,-7
0.48121,-8,1678,8083,94,-77,6
0.481349,-64,1688,8051,25,-90,-51
0.481489,-12,1686,8092,37,-45,-45
0.481628,5,1674,8106,63,-58,44
0.481767,17,1669,8112,44,-77,-89
0.481907,33,1662,8100,37,-84,25
0.482046,43,1679,8057,37,-39,-32
0.482185,-4,1715,8059,44,-103,-20
0.482324,57,1718,8048,44,-64,-32
0.482464,28,1631,8112,37,-39,18
0.482604,-66,1679,8099,63,-115,-58
0.482743,12,1700,8038,12,-64,12
0.482882,36,1730,8049,63,-64,-32
0.483021,-3,1664,8075,63,-58,-13
0.48316,16,1672,8071,0,-90,-13
0.4833,60,1679,8066,69,-58,-45
0.483439,-13,1660,8084,37,-58,-1
0.483578,-13,1676,8067,56,-103,-7
0.483718,-20,1686,8107,31,-58,-32
0.483857,7,1695,8109,25,-45,-32
0.483996,57,1679,8067,63,-90,-7
0.484136,31,1660,8107,37,-58,-20
0.484276,16,1648,8097,44,-84,-51
0.484414,26,1688,8112,19,-20,18
0.484554,-10,1703,8083,75,-96,-32
0.484693,-34,1679,8129,31,-77,-58
0.484832,18,1667,8073,50,-77,-1
0.484973,2,1704,8073,37,-45,-20
0.485114,-13,1650,8067,37,-84,-13
0.48525,-2,1619,8065,56,-58,-26
0.48539,-24,1660,8119,25,-90,-45
0.485529,15,1724,8109,63,-52,18
0.485668,-27,1716,8144,25,-77,-45
0.485808,9,1686,8117,31,-64,6
0.485947,-44,1680,8095,44,-77,-45
0.486086,-11,1656,8030,81,-90,-26
0.486226,-6,1646,8053,12,-58,25
0.486365,18,1641,8060,6,-39,-45
0.486504,37,1638,8023,100,-96,-45
0.486643,3,1646,8081,-7,-58,6
0.486783,26,1701,8101,88,-84,-45
0.486922,26,1719,8085,6,-52,18
0.487062,41,1658,8048,81,-90,-76
0.487201,-33,1673,8037,12,-64,18
0.48734,2,1678,8104,44,-64,-1
0.48748,69,1607,8078,6,-52,-45
0.487619,-9,1684,8049,119,-96,-13
0.487758,-29,1672,8106,-44,-64,-26
0.487897,-43,1692,8085,94,-64,-39
0.488037,25,1681,8109,12,-77,6
0.488176,2,1766,8070,56,-52,-51
0.488315,-14,1660,8093,63,-103,-7
0.488455,29,1694,8076,37,-52,-20
0.488594,17,1699,8059,50,-64,-7
0.488733,1,1677,8103,56,-77,-39
0.488873,31,1647,8102,56,-71,6
0.489012,9,1709,8130,0,-71,-45
0.489151,20,1668,8119,63,-96,-20
0.489291,-8,1704,8075,31,-20,-13
0.48943,-36,1665,8084,19,-90,-13
0.489569,-38,1674,8106,56,-96,-45
0.489709,-17,1640,8081,50,-33,6
0.489848,-40,1666,8091,50,-90,-45
0.489987,-16,1683,8077,6,-39,-13
0.490127,-43,1677,8093,75,-109,-39
0.490266,-27,1673,8066,31,-90,-39
0.490406,10,1721,8094,88,-45,-7
0.490545,44,1733,8067,-7,-71,-7
0.490684,-22,1705,8108,37,-64,-26
0.490823,-56,1706,8084,88,-122,-26
0.490962,-19,1670,8037,37,-64,-39
0.491102,31,1698,8103,0,-39,18
0.491241,18,1677,8083,63,-84,-39
0.49138,14,1677,8085,81,-84,-51
0.49152,40,1758,8059,25,-33,62
0.491659,-2,1692,8078,44,-128,-64
0.491798,-18,1697,8093,50,-39,-13
0.491938,-3,1720,8085,6,-45,-7
0.492077,-9,1650,8066,63,-115,-32
0.492216,41,1673,8073,63,-71,-13
0.492356,44,1627,8118,12,-45,-7
0.492495,9,1647,8142,69,-90,-45
0.492634,10,1681,8137,31,-33,12
0.492773,-16,1737,8047,44,-122,-58
0.492914,-7,1692,8077,37,-64,-20
0.493052,52,1650,8037,44,-84,-20
0.493192,-1,1683,8043,63,-45,-13
0.493331,-25,1732,8071,50,-122,-26
0.49347,24,1700,8066,19,-20,-20
0.493609,5,1733,8058,19,-90,-7
0.493749,24,1711,8067,94,-96,-45
0.493889,28,1698,8073,6,-52,6
0.494027,-29,1645,8011,56,-77,-83
0.494167,21,1668,8055,56,-64,25
0.494307,46,1691,8034,31,-77,-7
0.494447,44,1684,8035,69,-71,-58
0.494585,33,1709,8029,12,-58,-1
0.494724,20,1698,8098,56,-64,-26
0.494865,22,1710,8122,69,-103,-20
0.495008,6,1745,8048,31,-13,-13
0.495144,6,1719,8080,44,-96,-32
0.495281,39,1761,8090,44,-64,-7
0.495421,29,1702,8094,6,-52,-45
0.49556,39,1679,8165,63,-77,-1
0.495701,49,1694,8093,25,-58,-32
0.495838,3,1651,8096,50,-64,-13
0.495978,-6,1664,8086,63,-52,-26
0.496117,2,1715,8131,31,-84,-45
0.496257,9,1630,8141,19,-58,31
0.496396,36,1685,8096,94,-64,-76
0.496535,55,1705,8001,31,-103,-13
0.496675,60,1698,8109,19,-52,-7
0.496814,33,1739,8110,88,-52,-39
0.496953,51,1691,8095,37,-90,-26
0.497093,52,1681,8067,12,-45,6
0.497232,-19,1726,8015,81,-90,-26
0.497372,78,1712,8061,63,-96,-26
0.49751,52,1719,8061,0,-33,-39
0.49765,18,1707,8078,63,-77,-7
0.497789,44,1719,8054,50,-84,-7
0.497929,-23,1788,8076,31,-84,-26
0.498068,20,1735,8067,56,-64,-51
0.498207,7,1713,8066,25,-33,18
0.498346,-19,1702,8092,69,-122,-32
0.498486,35,1683,8141,31,-39,-13
0.498629,39,1658,8084,19,-77,-45
0.498764,-58,1729,8048,37,-64,25
0.498904,25,1709,8107,63,-77,-64
0.499043,32,1696,8073,44,-84,-13
0.499182,17,1658,8024,56,-39,-13
0.499322,-18,1700,8069,6,-77,-39
0.499461,2,1668,8107,81,-103,6
0.4996,8,1693,8058,12,-20,-45
0.49974,-23,1652,8088,50,-84,-13
0.499879,42,1632,8113,69,-90,-45
0.500018,-17,1677,8135,31,-52,18
0.500157,26,1735,8080,56,-77,-76
0.500297,-14,1711,8095,56,-84,6
0.500436,24,1707,8054,19,-64,-20
0.500576,40,1674,8079,50,-77,-51
0.500715,-21,1692,8107,25,-58,-1
0.500854,-19,1709,8083,0,-77,-1
0.500993,16,1693,8054,119,-71,-76
0.501133,38,1665,8036,56,-90,12
0.501272,-62,1673,8080,6,-45,-45
0.501411,-43,1643,8129,44,-64,-7
0.501551,6,1632,8051,44,-77,-20
0.50169,8,1691,8082,56,-45,-26
0.501829,32,1734,8090,44,-84,-7
0.501969,17,1741,8062,50,-71,-32
0.502108,13,1653,8096,50,-84,-20
0.502247,41,1641,8102,69,-33,-26
0.502387,10,1655,8133,25,-84,-13
0.502526,37,1665,8012,44,-64,-20
0.502665,3,1643,8010,69,-77,-32
0.502805,-4,1695,8064,0,-84,-1
0.502944,25,1700,8166,88,-77,-32
0.503083,8,1668,8086,25,-71,-45
0.503223,11,1693,8082,37,-71,18
0.503362,-23,1678,8141,37,-58,-20
0.503501,34,1664,8063,69,-103,-32
0.50364,30,1702,8056,19,-52,-1
0.50378,15,1758,8090,88,-77,-20
0.503919,49,1654,8093,25,-77,-32
0.504058,39,1679,8092,31,-77,-13
0.504198,76,1710,8113,37,-90,-32
0.504337,0,1681,8137,50,-71,-13
0.504476,19,1648,8116,44,-45,-1
0.504617,46,1670,8056,44,-109,-64
0.504756,26,1633,8085,56,-52,31
0.504894,31,1684,8065,44,-84,-45
0.505037,22,1692,8056,12,-64,6
0.505173,3,1645,8096,63,-96,-39
0.505312,12,1690,8063,50,-58,-7
0.505452,-24,1645,8127,25,-77,-32
0.505591,30,1697,8003,75,-52,-26
0.50573,-14,1644,8085,-7,-64,6
0.50587,-5,1686,8083,81,-109,-45
0.506009,20,1706,8045,0,-39,18
0.506148,25,1677,8065,56,-77,-51
0.506287,32,1697,8041,50,-90,-7
0.506428,23,1730,8069,63,-71,-26
0.506566,16,1649,8060,6,-33,12
0.506705,12,1662,8077,44,-90,-51
0.506845,40,1692,8049,56,-64,-32
0.506984,-18,1705,8086,44,-77,-7
0.507123,12,1684,8079,50,-96,-39
0.507263,32,1709,8119,25,-26,-20
0.507402,-11,1668,8082,81,-90,-1
0.507541,-24,1698,8110,31,-96,-58
0.507681,-28,1658,8113,19,-39,-1
0.50782,-33,1672,8058,75,-84,-32
0.507959,-21,1666,8032,25,-77,-13
0.508099,-9,1668,8081,50,-58,-20
0.508238,10,1674,8099,31,-109,-39
0.508377,21,1704,8085,63,-52,-1
0.508517,60,1664,8079,19,-84,-26
0.508656,36,1687,8136,37,-39,-7
0.508795,18,1686,8116,31,-96,-39
0.508935,28,1691,8019,31,-58,-26
0.509074,-4,1700,8095,56,-71,6
0.509213,-9,1712,8117,56,-71,-39
0.509353,76,1736,8078,31,-103,-39
0.509492,27,1711,8133,37,-45,12
0.509631,-7,1726,8088,81,-103,-64
0.50977,12,1675,8096,6,-39,-13
0.50991,45,1681,8036,69,-84,18
0.510049,67,1727,8089,50,-90,-51
