Average_IMU_SPS_Hz,7177.745
Average_IMU_SPS_Hz,7177.745
IMU_Time_sec,Accel_X_raw,Accel_Y_raw,Accel_Z_raw,Gyro_X_raw,Gyro_Y_raw,Gyro_Z_raw
0.0,51,1714,8115,44,-64,-7
0.000139,11,1691,8077,12,-90,-39
0.00028,15,1661,8071,63,-45,-7
0.000418,-14,1715,8088,50,-103,-32
0.000559,-58,1667,8119,19,-39,-32
0.000697,-15,1652,8058,50,-90,-20
0.000836,13,1703,8062,63,-77,18
0.000977,30,1684,8074,31,-58,-45
0.001115,43,1640,8070,25,-64,-20
0.001254,-13,1649,8038,56,-77,-7
0.001393,-48,1621,8105,75,-84,-32
0.001532,-15,1665,8100,19,-58,-13
0.001672,32,1696,8101,37,-71,-1
0.001811,26,1678,8094,25,-77,-58
0.00195,-14,1670,8067,63,-64,18
0.002091,65,1730,8104,25,-64,-32
0.002229,39,1662,8098,63,-64,-26
0.002369,35,1703,8162,25,-58,6
0.002508,-30,1682,8085,56,-90,-58
0.002647,-2,1735,8049,31,-84,-7
0.002786,-4,1719,8070,44,-64,-20
0.002926,-20,1714,8138,12,-13,31
0.003065,9,1677,8121,94,-135,-89
0.003204,22,1670,8014,31,-64,-1
0.003344,0,1681,8080,37,-71,-58
0.003483,49,1659,8047,56,-64,12
0.003622,46,1693,8079,12,-77,-39
0.003762,-20,1716,8028,50,-64,-7
0.003901,-24,1698,8090,56,-64,-45
0.00404,37,1683,8077,12,-96,-20
0.00418,18,1671,8068,81,-64,-32
0.004319,38,1650,8095,19,-77,-13
0.004458,9,1643,8087,31,-64,12
0.004598,-33,1647,8093,56,-58,-39
0.004737,5,1644,8033,69,-77,-1
0.004876,-6,1674,8070,37,-84,-26
0.005016,-1,1709,8080,56,-64,-13
0.005155,22,1727,8087,0,-64,-1
0.005294,-14,1719,8062,81,-103,-76
0.005434,-18,1745,8006,50,-71,25
0.005574,-50,1714,8061,25,-58,-32
0.005712,-57,1714,8087,75,-77,-20
0.005851,7,1653,8109,25,-71,-32
0.005991,14,1681,8056,56,-71,-7
0.00613,-5,1694,8078,25,-103,-32
0.00627,-19,1684,8101,50,-52,-13
0.006409,-24,1728,8068,44,-77,-26
0.006548,33,1719,8057,56,-84,-13
0.006687,-27,1682,8013,44,-58,-39
0.006827,-27,1658,8040,-13,-64,6
0.006966,65,1724,8039,125,-64,-45
0.007106,9,1677,8031,-7,-84,-32
0.007245,18,1685,8037,31,-64,-13
0.007384,0,1630,8044,69,-52,-20
0.007523,-53,1742,8075,31,-90,-20
0.007663,-31,1720,8094,37,-58,-39
0.007802,-19,1719,8050,75,-90,-13
0.007941,31,1725,8033,-7,-58,-7
0.008081,9,1658,8057,81,-64,-45
0.00822,-10,1744,8054,12,-96,18
0.008359,3,1703,8083,56,-39,-45
0.008498,52,1662,8061,50,-90,-26
0.008638,-24,1677,8086,37,-77,-39
0.008777,-7,1652,8063,6,-77,-1
0.008917,51,1643,8083,88,-84,-45
0.009056,37,1671,8071,12,-39,31
0.009195,2,1724,8099,56,-77,-45
0.009335,12,1736,8078,56,-122,-32
0.009474,5,1676,8064,19,-20,-7
0.009613,-9,1647,8089,44,-64,-1
0.009754,52,1696,8073,37,-84,-64
0.009893,38,1730,8065,63,-71,12
0.010031,11,1653,8089,25,-58,-39
0.010171,28,1696,8086,63,-77,-7
0.010312,28,1743,8084,12,-39,-7
0.010449,-21,1697,8068,75,-103,-70
0.010589,-24,1692,8041,12,-52,6
0.010727,10,1661,8111,69,-64,-39
0.010867,-24,1667,8045,0,-64,-7
0.011006,-35,1709,8052,88,-84,-32
0.011145,46,1678,8034,-13,-71,-13
0.011285,-4,1670,8045,81,-84,-32
0.011424,20,1691,8073,25,-71,-20
0.011564,-1,1689,8054,63,-52,-32
0.011703,-19,1682,8041,6,-64,-1
0.011843,-21,1684,8020,69,-84,-32
0.011982,-22,1700,8089,12,-58,-1
0.012121,7,1685,8069,50,-84,-39
0.012261,-15,1684,8110,56,-84,-13
0.012402,37,1655,8084,25,-45,-39
0.012539,46,1652,8149,31,-84,-7
0.012678,25,1690,8060,44,-52,-32
0.012817,-27,1624,8121,75,-84,-45
0.012958,-30,1671,8059,0,-39,37
0.013096,2,1686,8030,44,-84,-76
0.013237,23,1665,8093,50,-71,6
0.013375,45,1683,8104,12,-39,-7
0.013514,32,1691,8119,56,-96,-76
0.013653,-8,1690,8134,25,-52,6
0.013793,-48,1709,8064,56,-96,-26
0.013932,-13,1687,8038,19,-26,6
0.014071,20,1672,8099,25,-90,-45
0.014211,-40,1707,8092,50,-58,-26
0.01435,7,1680,8049,63,-90,-20
0.014489,19,1655,8082,6,-45,-26
0.014629,-31,1659,8084,69,-84,-20
0.014768,-52,1703,8125,56,-64,12
0.014907,-5,1686,8127,6,-103,-39
0.015046,-48,1685,8174,69,-45,-39
0.015186,9,1649,8146,31,-90,-7
0.015325,-41,1668,8160,56,-77,-32
0.015464,-11,1668,8102,44,-45,-26
0.015604,-19,1706,8080,50,-122,-13
0.015743,-4,1726,8085,19,-20,-13
0.015883,-13,1699,8092,50,-90,-51
0.016022,-23,1705,8097,69,-77,-13
0.016161,-55,1735,8175,44,-84,-13
0.016301,0,1685,8125,31,-71,-26
0.01644,33,1694,8117,25,-52,-32
0.016579,20,1717,8071,75,-84,18
0.016718,41,1716,8086,12,-84,-64
0.016858,-17,1679,8104,81,-52,-1
0.016997,32,1718,8133,-7,-64,-13
0.017136,51,1740,8095,50,-96,-20
0.017276,-18,1696,8136,56,-90,-32
0.017415,-5,1711,8141,31,-33,25
0.017554,10,1659,8051,63,-90,-58
0.017694,2,1714,8102,63,-84,-39
0.017833,14,1724,8137,56,-58,-1
0.017972,72,1692,8112,75,-90,-58
0.018112,-12,1658,8087,-7,-52,6
0.018251,18,1654,8161,44,-84,-1
0.01839,17,1708,8136,63,-77,-51
0.01853,-7,1716,8085,37,-64,-7
0.018669,-10,1674,8081,56,-84,-32
0.018808,-12,1691,8104,63,-77,-20
0.018947,22,1705,8100,25,-71,-13
0.019087,9,1688,8173,88,-90,-39
0.019226,74,1713,8080,12,-64,-32
0.019366,24,1748,8082,37,-52,-1
0.019505,24,1735,8056,56,-84,-1
0.019644,-27,1697,8115,37,-64,-70
0.019785,12,1672,8116,56,-77,37
0.019924,-12,1636,8090,44,-77,-83
0.020062,-25,1663,8067,25,-39,12
0.020201,-96,1653,8078,44,-71,-51
0.02034,-10,1684,8063,56,-77,18
0.02048,8,1717,8096,44,-39,-45
0.02062,-17,1694,8108,56,-109,-20
0.020758,-15,1710,8114,44,-45,18
0.020898,28,1702,8131,37,-84,-64
0.021037,26,1744,8084,37,-58,-7
0.021176,2,1687,8147,37,-90,-20
0.021316,25,1699,8111,50,-52,-20
0.021455,-32,1718,8076,69,-96,-58
0.021595,28,1686,8091,37,-45,18
0.021734,-4,1700,8103,12,-77,-32
0.021874,-45,1627,8108,50,-71,-20
0.022014,-21,1679,8094,44,-52,-32
0.022152,-14,1657,8106,44,-103,-13
0.022291,-19,1655,8099,37,-1,12
0.022431,-13,1649,8129,50,-122,-51
0.022571,30,1690,8099,63,-52,-1
0.022709,20,1653,8101,12,-84,-26
0.022848,-31,1726,8154,44,-39,-39
0.022988,-20,1701,8089,63,-90,25
0.023127,-23,1678,8091,37,-116,-76
0.023268,15,1691,8146,25,-13,6
0.023405,-18,1689,8144,37,-103,-51
0.023545,10,1722,8134,37,-26,6
0.023684,62,1727,8102,56,-96,-1
0.023824,-5,1702,8126,12,-52,-7
0.023963,-4,1671,8111,81,-103,-51
0.024103,17,1682,8076,19,-39,-13
0.024242,-25,1684,8137,75,-77,-26
0.024381,-39,1725,8111,-7,-64,-1
0.02452,-34,1726,8100,63,-77,-39
0.02466,-12,1693,8102,50,-71,-39
0.024799,48,1708,8073,69,-77,-7
0.024938,16,1667,8073,25,-77,-39
0.025078,-6,1606,8087,25,-39,18
0.025217,-29,1739,8065,75,-103,-70
0.025356,-44,1693,8047,25,-90,-7
0.025495,11,1724,8097,63,-26,-7
0.025635,-5,1699,8128,25,-84,-26
0.025774,-34,1722,8094,50,-90,-26
0.025914,2,1705,8113,12,-45,-1
0.026053,-33,1672,8139,63,-64,-51
0.026192,40,1671,8064,19,-84,6
0.026331,-6,1670,8066,63,-64,-45
0.026471,-27,1689,8114,56,-64,-1
0.02661,9,1685,8070,37,-96,-45
0.026749,-3,1680,8066,50,-39,-13
0.026889,2,1707,8058,31,-109,-7
0.027028,33,1742,8085,44,-58,-45
0.027167,-5,1698,8193,12,-58,6
0.027307,22,1712,8089,88,-84,-26
0.027446,-14,1640,8066,37,-77,-26
0.027585,28,1679,8069,50,-64,12
0.027725,-6,1685,8086,31,-58,-64
0.027864,27,1680,8079,37,-77,6
0.028003,49,1711,8092,44,-84,-32
0.028143,29,1653,8052,50,-71,-20
0.028286,0,1680,8069,31,-77,-7
0.028421,-13,1711,8069,56,-58,-26
0.028561,39,1703,8134,63,-77,-45
0.0287,0,1682,8151,37,-58,31
0.028839,28,1730,8089,37,-77,-89
0.028979,8,1646,8090,31,-71,-13
0.029118,5,1709,8091,37,-52,18
0.029257,-80,1663,8120,56,-96,-64
0.029396,-45,1669,8114,31,-64,6
0.029536,-2,1666,8126,25,-77,-7
0.029676,-20,1690,8119,56,-20,-39
0.029815,19,1718,8134,100,-147,-39
0.029954,10,1696,8138,-44,12,44
0.030093,42,1652,8072,113,-122,-45
0.030234,22,1681,8050,19,-64,-45
0.030372,27,1656,8100,44,-77,25
0.030511,-21,1624,8092,37,-45,-58
0.03065,29,1640,8079,31,-64,12
0.030789,49,1706,8066,63,-96,-45
0.030929,-6,1669,8094,44,-96,-20
0.031068,-35,1665,8106,56,-33,-26
0.031207,37,1676,8099,19,-96,-7
0.031347,44,1706,8104,88,-58,-51
0.031486,18,1640,8077,-7,-58,12
0.031625,20,1696,8053,81,-71,-20
0.031766,22,1751,8119,6,-71,-20
0.031905,74,1746,8083,88,-96,-32
0.032043,21,1714,8024,31,-39,-26
0.032183,1,1693,8086,75,-103,-13
0.032322,23,1632,8139,12,-52,-1
0.032462,7,1686,8108,100,-96,-32
0.032601,11,1739,8067,31,-77,-32
0.03274,17,1710,8081,25,-58,-20
0.032879,10,1677,8086,81,-71,12
0.033019,-1,1703,8103,19,-58,-58
0.033158,60,1741,8084,50,-103,-39
0.033297,32,1685,8090,50,-64,18
0.033437,-11,1700,8085,44,-58,-1
0.033576,3,1667,8125,31,-109,-51
0.033715,16,1681,8112,56,-58,-7
0.033855,20,1745,8066,69,-109,-45
0.033994,-1,1710,8086,6,-26,6
0.034133,2,1707,8119,50,-103,-32
0.034273,20,1751,8054,75,-71,-39
0.034412,28,1673,8070,0,-39,6
0.034551,24,1647,8087,56,-90,-51
0.03469,-1,1730,8025,37,-77,-1
0.03483,-15,1695,8080,56,-90,-32
0.034969,-11,1707,8122,25,-20,-1
0.035108,32,1708,8109,50,-109,-39
0.035248,36,1716,8089,12,-71,-7
0.035387,-45,1684,8026,81,-116,-26
0.035526,-44,1674,8048,19,-45,-51
0.035666,44,1684,8062,44,-52,6
0.035805,19,1693,8122,56,-84,-39
0.035944,13,1705,8092,44,-96,12
0.036084,16,1694,8089,6,-39,-32
0.036223,41,1671,8095,44,-77,-26
0.036362,11,1678,8163,63,-84,-20
0.036502,28,1680,8079,50,-33,-39
0.036641,61,1709,8052,44,-96,12
0.03678,-4,1675,8054,25,-52,-32
0.03692,42,1732,8044,63,-64,-13
0.037059,2,1706,8065,37,-84,-32
0.037198,-14,1696,8074,56,-64,-26
0.037338,-42,1661,8095,0,-58,-1
0.037477,14,1623,8078,88,-77,-26
0.037616,28,1684,8005,31,-52,-39
0.037756,-6,1708,8067,50,-96,6
0.037895,-13,1711,8088,69,-96,-51
0.038034,24,1638,8096,6,-52,-1
0.038173,55,1651,8157,63,-71,-13
0.038313,14,1697,8127,37,-77,-20
0.038452,-3,1700,8107,75,-58,-20
0.038591,-13,1688,8138,-13,-77,-32
0.038731,6,1696,8058,81,-52,-1
0.03887,26,1725,8112,37,-84,-20
0.039009,12,1743,8082,50,-58,-26
0.039149,-41,1659,8139,56,-96,-13
0.039288,-9,1656,8112,31,-64,-51
0.039427,-49,1676,8087,44,-52,-1
0.039567,6,1636,8085,50,-84,-13
0.039706,27,1690,8068,12,-71,-20
0.039845,19,1687,8080,50,-103,-58
0.039985,25,1686,8100,50,-1,31
0.040124,0,1671,8100,56,-128,-70
0.040263,-34,1627,8115,19,-58,18
0.040403,-28,1691,8067,56,-96,-58
0.040543,15,1743,8113,25,-39,-7
0.040681,16,1693,8130,50,-90,-13
0.040821,32,1662,8094,50,-52,-51
0.04096,10,1694,8059,31,-77,12
0.041099,25,1697,8115,56,-64,-26
0.041239,27,1692,8067,37,-71,-45
0.041378,-10,1686,8090,12,-52,18
0.041517,-46,1702,8099,100,-122,-51
0.041656,-25,1671,8062,12,-52,-7
0.041796,8,1623,8084,50,-64,-32
0.041935,-23,1666,8077,69,-64,-13
0.042074,-44,1654,8073,25,-77,-7
0.042214,-26,1689,8101,50,-103,-58
0.042353,-57,1721,8070,37,-45,12
0.042492,-29,1664,8044,37,-96,-26
0.042632,-35,1599,8092,63,-52,-13
0.042771,15,1692,8105,25,-103,-58
0.04291,33,1720,8078,69,-26,12
0.04305,-9,1674,8127,19,-128,-13
0.043189,2,1660,8108,50,-26,-45
0.043328,37,1687,8076,50,-71,-1
0.043468,-35,1662,8077,63,-116,-58
0.043607,-19,1659,8083,0,-13,-7
0.043746,-10,1713,8114,94,-103,-20
0.043886,-17,1730,8078,12,-52,12
0.044025,16,1734,8070,50,-90,-39
0.044164,17,1745,8134,44,-58,-13
0.044304,-35,1754,8134,50,-71,-32
0.044443,-82,1664,8142,69,-96,-39
0.044582,-6,1655,8107,31,-52,-7
0.044722,16,1675,8132,50,-77,-39
0.044861,22,1615,8113,25,-71,-1
0.045,81,1675,8113,63,-77,-26
0.045139,25,1679,8082,81,-64,-32
0.045279,5,1700,8045,-7,-64,-7
0.045418,-58,1638,8084,81,-90,-45
0.045557,-2,1662,8149,37,-77,-32
0.045697,-16,1629,8100,19,-90,12
0.045837,-1,1690,8066,44,-26,-26
0.045975,-39,1715,8104,69,-96,-32
0.046115,-4,1731,8095,37,-20,-20
0.046254,53,1701,8096,25,-90,-7
0.046395,10,1673,8074,63,-77,-76
0.046533,8,1706,8058,44,-64,6
0.046672,28,1680,8091,19,-58,-26
0.046811,-24,1673,8042,69,-90,-7
0.046951,-5,1677,8087,6,-64,-20
0.04709,-10,1733,8063,63,-58,-20
0.047229,13,1731,8099,44,-109,-83
0.047369,24,1722,8032,44,-77,31
0.047508,19,1690,8071,50,-52,-39
0.047647,6,1680,8095,25,-90,-26
0.047787,17,1673,8085,50,-58,6
0.047926,-18,1686,8043,69,-77,-51
0.048065,-10,1664,8093,31,-90,-26
0.048204,18,1734,8079,50,-52,-26
0.048344,23,1685,8046,50,-90,6
0.048483,-1,1686,8037,50,-71,-64
0.048622,-6,1664,8064,31,-71,31
0.048762,-33,1709,8075,44,-58,-39
0.048901,-22,1722,8083,44,-90,-51
0.04904,16,1642,8152,37,-58,12
0.04918,-17,1744,8109,50,-58,-39
0.049319,16,1730,8125,37,-116,-26
0.049458,5,1755,8107,6,-26,6
0.049598,42,1715,8077,88,-116,-39
0.049737,38,1687,8053,19,-20,-20
0.049876,-44,1722,8148,63,-135,-26
0.050016,-7,1695,8087,44,-20,-20
0.050155,-48,1652,8031,50,-103,-7
0.050294,-11,1722,8065,44,-84,-64
0.050434,-2,1690,8026,25,-58,25
0.050573,-6,1676,8068,31,-77,-32
0.050712,4,1710,8128,44,-84,-20
0.050852,47,1682,8082,81,-71,-32
0.050991,62,1686,8130,31,-52,-26
0.05113,-1,1728,8066,6,-71,-13
0.05127,35,1773,8115,88,-84,-26
0.051409,-14,1759,8123,6,-52,-7
0.051548,41,1698,8081,88,-96,-13
0.051687,32,1715,8140,25,-58,-51
0.051827,56,1731,8083,44,-71,25
0.051966,-14,1732,8062,50,-71,-64
0.052105,27,1684,8052,63,-90,-26
0.052245,67,1633,8058,31,-64,31
0.052384,20,1685,8047,12,-45,-45
0.052523,36,1694,8080,81,-90,-26
0.052663,39,1733,8098,25,-84,-32
0.052802,59,1691,8085,25,-33,-13
0.052941,75,1661,8089,75,-58,-26
0.053081,5,1679,8157,56,-128,-51
0.05322,32,1632,8059,50,-26,18
0.053359,78,1715,8034,12,-84,-26
0.053499,48,1693,8107,56,-64,-32
0.053638,44,1655,8070,44,-45,-1
0.053777,50,1700,8074,12,-90,-39
0.053918,54,1683,8090,81,-84,-20
0.054056,17,1686,8116,-7,-52,-1
0.054195,29,1609,8084,88,-71,-39
0.054337,32,1680,8090,19,-77,-13
0.054474,26,1706,8135,19,-71,-20
0.054613,8,1648,8107,50,-52,-32
0.054753,6,1687,8081,69,-84,-32
0.054894,-20,1669,8094,-7,-45,-7
0.055031,-12,1682,8053,37,-52,6
0.05517,-66,1694,8056,63,-128,-64
0.055311,-24,1715,8073,31,-39,-1
0.055449,23,1729,8069,37,-64,-39
0.055588,-1,1650,8120,44,-58,-20
0.055728,31,1635,8086,31,-77,12
0.055867,55,1684,8099,37,-58,-51
0.056006,38,1640,8073,19,-45,25
0.056148,14,1659,8068,113,-128,-58
0.056285,32,1721,8114,-57,-20,31
0.056425,32,1726,8133,107,-103,-58
0.056564,-23,1747,8100,-38,-7,25
0.056706,21,1701,8053,81,-109,-45
0.056843,6,1706,8072,50,-71,-51
0.056982,21,1735,8064,25,-45,37
0.057122,2,1669,8103,56,-103,-58
0.05726,17,1705,8074,25,-33,-7
0.057402,12,1680,8105,75,-103,-7
0.057542,-50,1707,8063,19,-77,-45
0.057678,2,1772,8115,37,-45,-13
0.057818,-9,1621,8142,44,-45,-7
0.057958,7,1687,8062,69,-116,-39
0.058099,67,1715,8083,0,-33,-13
0.058236,-12,1659,8094,63,-58,-1
0.058375,9,1702,8069,44,-52,-45
0.058515,-2,1659,8070,31,-84,-45
0.058653,4,1629,8077,19,-52,25
0.058794,4,1720,8017,88,-96,-70
0.058933,26,1662,8081,12,-64,25
0.059072,0,1662,8083,81,-26,-39
0.059211,41,1619,8089,19,-90,-7
0.05935,51,1677,8088,69,-77,-58
0.05949,-3,1697,8083,69,-33,25
0.059629,21,1738,8061,12,-71,-39
0.059768,58,1672,8032,75,-109,-45
0.059907,-18,1702,8141,19,-20,-1
0.060047,46,1707,8148,50,-128,-51
0.060186,20,1697,8138,37,-45,25
0.060325,39,1673,8086,25,-77,-32
0.060464,-12,1695,8076,75,-90,-45
0.060604,-24,1720,8067,50,-45,-20
0.060743,20,1684,8034,12,-84,12
0.060882,26,1673,8066,69,-96,-51
0.061022,-58,1731,8081,25,-58,-7
0.061161,-2,1679,8096,50,-64,-26
0.0613,9,1698,8097,69,-96,-39
0.06144,-39,1680,8111,44,-71,-13
0.061579,12,1654,8079,25,-33,-7
0.061719,26,1724,8046,69,-77,-64
0.061858,36,1673,8050,12,-90,37
0.061997,17,1685,8070,56,-64,-39
0.062137,-24,1671,8080,63,-84,-13
0.062276,-9,1690,8122,19,-45,-13
0.062415,-25,1683,8089,56,-84,-32
0.062556,-27,1686,8067,81,-96,-45
0.062695,42,1722,8100,-13,-64,-26
0.062833,-63,1693,8103,63,-39,50
0.062972,-11,1694,8027,63,-90,-83
0.063112,15,1687,8037,31,-103,6
0.063251,49,1752,8058,25,-26,-7
0.063392,9,1700,8078,44,-77,-51
0.06353,8,1648,8071,44,-77,-20
0.063669,-33,1661,8056,44,-39,-13
0.063809,-24,1695,8089,19,-84,-32
0.063948,10,1735,8052,75,-77,-7
0.064087,-21,1653,8062,19,-58,-39
0.064226,24,1633,8059,69,-77,-32
0.064365,-17,1677,8081,12,-84,-1
0.064506,-31,1718,8137,94,-71,-1
0.064644,-77,1674,8121,6,-45,-70
0.064784,-67,1671,8110,75,-103,-7
0.064923,12,1666,8041,12,-52,12
0.065062,8,1704,8030,63,-71,-39
0.065202,-24,1665,8095,44,-64,-32
0.065341,-3,1703,8098,37,-71,18
0.06548,33,1682,8059,56,-84,-76
0.06562,25,1715,8082,12,-52,6
0.065759,-4,1666,8125,56,-77,6
0.065899,-47,1660,8061,50,-71,-70
0.06604,-18,1722,8080,37,-71,-1
0.066177,22,1700,8078,37,-84,-20
0.066316,28,1733,8031,37,-20,6
0.066455,-22,1672,8036,69,-154,-76
0.066595,20,1670,8112,37,-52,6
0.066734,-16,1690,8059,31,-58,-20
0.066873,-44,1639,8129,31,-64,-39
0.067013,12,1657,8135,63,-58,-13
0.067152,20,1657,8093,25,-103,-7
0.067291,17,1678,8090,81,-58,-39
0.067431,-20,1766,8017,19,-64,-7
0.06757,2,1704,8025,75,-71,-26
0.06771,-20,1651,8069,31,-64,-7
0.06785,-34,1709,8099,31,-64,-26
0.067989,-26,1658,8106,25,-45,-20
0.068127,34,1696,8097,75,-109,-45
0.068267,8,1721,8068,12,-52,-13
0.068407,45,1687,8096,37,-52,-13
0.068545,6,1636,8046,50,-96,-45
0.068684,-24,1693,8072,44,-52,-1
0.068825,15,1713,8084,75,-90,-70
0.068965,18,1639,8119,19,-64,25
0.069102,72,1693,8068,37,-84,-32
0.069243,36,1722,8105,31,-39,-39
0.069381,-9,1713,8030,75,-90,-26
0.06952,17,1728,8110,6,-77,-1
0.069662,6,1649,8084,56,-71,-26
0.069799,16,1691,8075,37,-77,-26
0.069938,-2,1704,8102,44,-71,-45
0.070079,38,1712,8064,31,-45,18
0.070217,42,1636,8086,56,-77,-64
0.070356,-32,1713,8063,19,-52,-1
0.070498,-31,1679,8089,25,-58,-26
0.070635,-36,1650,8097,81,-84,-13
0.070774,-62,1736,8070,44,-71,-32
0.070914,4,1661,8097,31,-64,6
0.071053,22,1664,8066,44,-45,-51
0.071192,20,1731,8068,19,-90,6
0.071332,24,1701,8110,75,-90,-39
0.071471,34,1660,8159,44,-71,-51
0.07161,33,1708,8123,19,-39,25
0.07175,-4,1671,8069,50,-96,-32
0.071889,32,1722,8030,63,-77,-32
0.072028,32,1669,8032,19,-71,-20
0.072168,32,1693,8081,63,-90,-13
0.072307,27,1704,8054,50,-52,-32
0.072446,-35,1656,8093,50,-58,-7
0.072585,31,1679,8099,0,-116,-45
0.072725,-10,1685,8093,94,-20,12
0.072864,8,1694,8093,12,-103,-45
0.073004,35,1685,8098,44,-58,-32
0.073143,-38,1689,8079,19,-58,-1
0.073282,-3,1671,8103,37,-84,-13
0.073422,-80,1708,8103,81,-71,-32
0.073561,-29,1748,8105,25,-77,-32
0.0737,-54,1660,8117,63,-45,-7
0.07384,-24,1622,8071,25,-52,-20
0.073979,-42,1710,8059,37,-116,-39
0.074118,-8,1664,8079,50,-64,-20
0.074257,-29,1715,8110,19,-58,-13
0.0744,-17,1699,8102,94,-84,-45
0.074536,11,1711,8084,12,-64,-13
0.074675,4,1671,8111,44,-64,37
0.074815,27,1687,8083,31,-71,-70
0.074954,58,1740,8078,44,-84,-13
0.075093,46,1676,8100,50,-64,-13
0.075233,2,1661,8077,75,-90,-39
0.075372,22,1623,8048,12,-84,-13
0.075511,-33,1734,8052,50,-39,12
0.075651,21,1736,8093,44,-77,-45
0.07579,21,1730,8032,50,-77,-26
0.075929,-35,1680,8070,25,-71,-20
0.076069,-8,1678,8064,63,-64,-20
0.076209,-17,1676,8059,6,-64,-1
0.076347,28,1662,8012,81,-64,-45
0.076487,51,1671,8041,19,-84,-13
0.076626,41,1656,8119,56,-96,-32
0.076765,20,1712,8103,19,-33,-7
0.076904,-21,1664,8036,44,-77,-13
0.077043,5,1678,8104,50,-77,-39
0.077183,41,1712,8114,63,-84,-39
0.077322,-19,1704,8101,-13,-52,-7
0.077462,-26,1722,8084,81,-109,-39
0.077601,-17,1662,8119,75,-77,-20
0.077741,3,1646,8073,-51,-33,12
0.07788,16,1691,8086,88,-96,-13
0.078019,-26,1696,8121,56,-77,-83
0.078159,2,1682,8053,25,-52,50
0.078298,-19,1664,8065,56,-90,-76
0.078438,-13,1730,8082,19,-58,-1
0.078576,-13,1721,8078,81,-90,-26
0.078715,-45,1715,8132,19,6,-20
0.078856,-4,1728,8082,56,-109,-13
0.078994,22,1679,8136,69,-84,-26
0.079133,-5,1676,8133,0,-52,-7
0.079275,10,1659,8101,63,-71,-32
0.079417,22,1733,8091,44,-52,12
0.079551,-34,1713,8090,25,-77,-26
0.079692,-11,1717,8042,56,-90,-58
0.07983,-6,1673,8050,37,-64,6
0.079969,18,1674,8051,25,-33,-32
0.080109,-19,1703,8074,63,-103,-39
0.080248,25,1745,8076,37,-64,-7
0.080387,-25,1663,8068,31,-58,12
0.080527,-3,1670,8091,63,-77,-32
0.080666,54,1662,8082,75,-58,-32
0.080805,27,1634,8084,31,-90,-26
0.080946,23,1743,8040,44,-58,6
0.081084,-35,1671,8081,12,-45,-1
0.081224,-35,1670,8057,63,-64,-58
0.081363,11,1714,8079,44,-103,-26
0.081503,43,1640,8104,31,-13,18
0.081641,-9,1707,8060,44,-90,-58
0.081781,23,1660,8095,69,-71,-1
0.08192,-5,1666,8088,0,-26,6
0.08206,1,1646,8116,81,-128,-64
0.082199,-11,1644,8132,-7,-26,-39
0.082338,31,1675,8076,56,-58,12
0.082477,35,1747,8078,56,-103,-32
0.082617,58,1655,8065,37,-13,-26
0.082756,-13,1664,8099,25,-122,-32
0.082895,-34,1657,8059,63,-58,-1
0.083036,4,1726,8044,31,-71,-51
0.083174,14,1674,8048,31,-64,12
0.083313,28,1657,8109,75,-71,-39
0.083453,26,1665,8100,-7,-64,-1
0.083592,36,1690,8071,94,-84,-58
0.083731,-24,1676,8095,31,-71,12
0.08387,48,1675,8120,50,-64,-39
0.08401,42,1742,8107,37,-71,-1
0.084149,16,1671,8082,25,-45,-13
0.084288,-33,1645,8046,56,-96,-64
0.084428,-16,1655,8048,56,-64,-7
0.084567,-10,1662,8069,19,-45,-20
0.084706,-15,1627,8121,50,-96,-7
0.084846,18,1678,8149,81,-84,-39
0.084985,-43,1683,8089,12,-45,-20
0.085124,-9,1684,8106,69,-96,-1
0.085264,0,1643,8093,25,-58,-32
0.085403,6,1725,8086,37,-84,-13
0.085542,6,1686,8112,25,-39,-13
0.085682,-4,1643,8127,69,-128,-45
0.085822,31,1704,8066,25,-26,-1
0.08596,2,1692,8088,63,-84,-32
0.0861,0,1655,8090,37,-58,-20
0.086239,-4,1658,8104,37,-84,-7
0.086379,8,1658,8082,56,-52,-58
0.086517,15,1644,8098,31,-96,25
0.086657,-21,1664,8151,75,-58,-58
0.086796,-25,1665,8140,25,-64,-20
0.086937,-14,1679,8090,56,-116,-32
0.087074,-14,1697,8103,6,-26,12
0.087214,4,1663,8088,75,-71,-20
0.087353,14,1661,8058,12,-77,-39
0.087492,40,1662,8110,81,-64,-13
0.087632,10,1675,8105,25,-84,-26
0.087773,-9,1665,8099,63,-52,-1
0.087911,8,1693,8075,37,-90,-26
0.08805,42,1693,8089,44,-45,-26
0.088189,63,1683,8092,69,-103,-39
0.088328,37,1695,8114,0,-33,-7
0.088468,16,1690,8104,81,-103,-7
0.088609,12,1713,8042,37,-58,-39
0.088746,-15,1716,8100,63,-58,-26
0.088886,8,1691,8062,-19,-64,-7
0.089025,-44,1669,8126,63,-90,-32
0.089164,-11,1667,8101,19,-64,-20
0.089305,-49,1690,8103,56,-45,-7
0.089443,12,1707,8102,56,-64,-26
0.089582,7,1656,8155,25,-109,-58
0.089722,-3,1628,8154,81,-64,12
0.089861,10,1699,8090,6,-39,-1
0.090001,1,1704,8061,56,-90,-45
0.09014,23,1662,8076,56,-90,-26
0.090279,-1,1688,8090,44,-77,-7
0.090418,-27,1736,8094,25,-52,-20
0.090558,32,1686,8095,50,-71,-45
0.090697,-25,1690,8046,37,-71,6
0.090836,9,1723,8116,50,-71,-32
0.090976,42,1699,8050,25,-71,-20
0.091115,28,1719,8074,50,-90,-13
0.091254,32,1664,8111,69,-64,-39
0.091393,16,1639,8109,50,-45,-39
0.091533,66,1678,8102,25,-96,-7
0.091672,54,1690,8059,63,-58,-26
0.091812,18,1684,8092,12,-64,-45
0.091951,82,1677,8103,50,-58,6
0.09209,52,1687,7994,69,-90,-64
0.09223,2,1673,8068,6,-33,12
0.092369,-26,1675,8110,69,-116,-58
0.092508,-3,1718,8086,12,-33,-1
0.092648,-6,1752,8159,56,-77,-26
0.092787,-40,1691,8112,6,-52,-7
0.092926,-45,1676,8069,88,-96,-45
0.093066,2,1694,8122,0,-77,-1
0.093205,32,1652,8122,19,-45,-20
0.093344,-15,1726,8132,63,-96,-26
0.093483,15,1697,8104,56,-64,-20
0.093623,28,1730,8081,31,-77,-7
0.093762,-17,1727,8084,75,-84,-70
0.093902,-54,1692,8086,50,-52,18
0.094041,0,1692,8087,25,-58,-20
0.09418,2,1665,8098,81,-109,-51
0.094319,17,1698,8066,31,-33,-13
0.094459,12,1675,8097,31,-84,12
0.094598,-8,1665,8076,69,-116,-58
0.094737,34,1664,8085,25,-33,25
0.094877,-6,1703,8097,81,-96,-32
0.095016,-15,1739,8129,25,-77,-45
0.095155,25,1668,8090,25,-52,18
0.095295,53,1698,8066,56,-64,-13
0.095434,7,1694,8082,37,-84,-58
0.095573,22,1637,8049,19,-58,6
0.095712,12,1687,8082,81,-84,-20
0.095852,9,1680,8083,50,-84,-32
0.095991,-21,1642,8126,31,-71,-26
0.09613,-9,1674,8127,25,-58,-1
0.09627,22,1638,8087,81,-77,-26
0.096411,12,1645,8118,0,-90,-26
0.096549,4,1623,8071,88,-64,-1
0.096688,16,1648,8057,19,-58,-45
0.096827,20,1718,8061,63,-71,-20
0.096966,-34,1708,8102,25,-71,-7
0.097105,-27,1674,8047,50,-52,-26
0.097245,27,1686,8080,56,-116,-64
0.097384,17,1711,8048,31,-71,25
0.097525,39,1651,8078,69,-39,-7
0.097663,17,1706,8054,12,-71,-70
0.097802,1,1697,8070,56,-84,25
0.097943,-69,1690,8074,56,-58,-26
0.098082,-22,1662,8069,44,-90,-45
0.09822,-27,1674,8074,69,-64,-13
0.098359,7,1679,8095,12,-71,6
0.098499,2,1671,8068,75,-71,-45
0.09864,49,1654,8108,12,-52,-20
0.098777,-22,1708,8096,31,-90,-32
0.098917,1,1713,8119,44,-26,12
0.099056,22,1680,8096,50,-103,-39
0.099199,-18,1744,8020,37,-64,-39
0.099335,23,1720,8090,37,-71,-20
0.099474,19,1673,8075,63,-77,-32
0.099614,-19,1690,8070,-32,-45,-13
0.099753,4,1680,8057,113,-128,-32
0.099892,65,1724,8081,12,-26,-1
0.100032,-32,1727,8083,31,-77,-20
0.100175,25,1742,8098,50,-77,-39
0.10031,55,1676,8057,50,-58,-39
0.100449,19,1719,8081,6,-58,25
0.100589,0,1694,8118,56,-103,-58
0.100728,-18,1668,8086,44,-45,-13
0.100867,47,1726,8106,63,-90,-13
0.101007,13,1718,8070,37,-71,-39
0.101146,-38,1733,8055,25,-39,6
0.101285,28,1657,8027,81,-84,-70
0.101425,-20,1689,8065,25,-58,-1
0.101564,-5,1704,8067,31,-64,-7
0.101703,-6,1692,8079,56,-103,-64
0.101843,24,1662,8038,37,-45,6
0.101982,38,1690,8090,50,-77,-7
0.102121,30,1687,8052,81,-84,-76
0.102261,25,1674,8087,19,-90,12
0.102403,14,1683,8057,37,-45,-26
0.102539,-7,1675,8026,56,-96,-39
0.102679,-18,1661,8082,25,-45,6
0.102818,28,1725,8074,56,-109,-26
0.102957,1,1724,8071,25,-52,6
0.103097,-6,1705,8080,50,-109,-39
0.103236,3,1674,8054,37,-45,-39
0.103376,20,1727,8049,81,-90,12
0.103515,25,1658,8081,12,-33,-13
0.103654,27,1623,8093,63,-90,-39
0.103793,15,1696,8106,31,-64,-13
0.103932,12,1733,8123,44,-96,-20
0.104072,-26,1688,8112,19,-20,-26
0.104211,-7,1708,8088,75,-90,-7
0.10435,31,1696,8105,25,-77,-39
0.104491,-6,1637,8104,50,-45,-32
0.104629,8,1699,8085,37,-71,-7
0.104768,-11,1713,8083,44,-71,-1
0.104909,51,1647,8061,0,-45,-32
0.105047,-32,1689,8092,75,-90,-39
0.105186,32,1712,8039,69,-77,-13
0.105326,-14,1686,8112,-7,-26,-1
0.105465,-24,1729,8102,63,-122,-39
0.105604,-23,1717,8055,56,-64,-26
0.105743,-51,1728,8058,0,-84,-1
0.105884,-65,1677,8092,81,-26,-83
0.106022,46,1695,8087,6,-84,31
0.106162,50,1711,8044,81,-71,-45
0.106301,7,1678,8059,56,-77,-13
0.10644,14,1704,8040,0,-52,6
0.106582,-4,1655,8064,81,-77,-45
0.106719,-18,1684,8044,0,-90,-20
0.106858,6,1658,8052,88,-71,-32
0.106997,-27,1651,8061,19,-71,-1
0.107137,5,1670,8085,37,-58,-20
0.107276,42,1664,8036,50,-71,-26
0.107415,0,1676,8064,31,-84,-7
0.107555,10,1696,8127,69,-58,-70
0.107694,31,1752,8122,19,-90,56
0.107833,-25,1683,8111,69,-52,-83
0.107974,-24,1734,8099,56,-64,6
0.108112,10,1690,8103,19,-77,-20
0.108252,0,1659,8080,69,-103,-51
0.108391,-62,1683,8099,44,-39,-32
0.10853,8,1640,8034,19,-84,37
0.108669,42,1704,8144,44,-71,-51
0.108809,43,1697,8062,75,-77,-45
0.108948,-37,1696,8112,12,-96,12
0.109088,-1,1644,8089,44,-13,-13
0.109226,9,1660,8085,19,-135,-45
0.109368,12,1719,8079,50,-58,18
0.109505,8,1734,8094,25,-39,-32
0.109644,-4,1687,8025,75,-84,-32
0.109784,-60,1697,8116,44,-96,-1
0.109923,-41,1685,8124,31,-52,-39
0.110062,52,1678,8076,0,-84,-26
0.110202,-14,1650,8030,88,-52,-7
0.110341,-13,1679,8118,6,-84,-20
0.11048,-20,1691,8138,37,-45,-26
0.11062,7,1741,8090,69,-122,-51
0.110759,-27,1740,8098,37,-77,25
0.110898,-12,1727,8089,37,-33,-51
0.111038,15,1703,8057,56,-109,-13
0.111177,-23,1693,8056,6,-45,12
0.111316,4,1689,8091,88,-90,-83
0.111456,51,1671,8069,37,-77,25
0.111595,51,1670,8025,25,-33,-26
0.111734,-2,1671,8056,44,-90,-20
0.111874,-17,1674,8058,69,-116,-32
0.112013,-8,1712,8092,19,-33,-13
0.112152,-2,1679,8182,37,-77,6
0.112291,60,1651,8098,31,-84,-45
0.112431,-11,1700,8151,88,-39,-26
0.11257,-54,1700,8100,25,-77,-1
0.11271,-34,1718,8058,37,-96,-64
0.112849,18,1678,8070,88,-39,12
0.112988,25,1702,8110,0,-58,-32
0.113128,-7,1710,8090,81,-128,-26
0.113267,9,1655,8048,25,-33,-20
0.113406,-61,1666,8109,44,-77,-7
0.113546,40,1709,8088,37,-90,-45
0.113685,12,1699,8137,37,-26,25
0.113824,56,1719,8098,44,-122,-45
0.113963,-38,1695,8080,69,-77,-39
0.114103,37,1724,8083,12,-64,18
0.114242,13,1701,8116,69,-96,-45
0.114381,16,1665,8077,44,-77,-7
0.114521,-22,1738,8090,19,-64,12
0.11466,-20,1674,8118,75,-58,-64
0.114799,-5,1652,8063,44,-103,-13
0.114939,15,1668,8071,19,-13,6
0.115078,9,1678,8081,107,-128,-76
0.115217,-31,1711,8039,19,-45,6
0.115357,17,1696,8120,37,-84,-20
0.115496,-37,1643,8173,31,-58,-20
0.115635,6,1692,8062,75,-84,-51
0.115776,-6,1721,8146,25,-45,44
0.115915,-12,1683,8073,56,-77,-64
0.116053,-11,1667,8044,50,-64,-1
0.116192,-54,1675,8078,56,-116,-39
0.116332,-38,1689,8042,19,-39,-26
0.116471,-47,1658,8047,19,-58,31
0.11661,13,1689,8090,63,-116,-58
0.11675,-12,1717,8049,56,-33,-20
0.116889,68,1656,8021,44,-71,6
0.117028,-7,1664,8068,69,-77,-45
0.11717,-60,1657,8080,6,-64,-13
0.117307,7,1646,8090,50,-77,-32
0.117446,8,1695,8080,63,-77,-13
0.117586,-16,1701,8149,6,-58,-20
0.117725,-26,1653,8094,63,-96,-26
0.117864,1,1654,8101,75,-52,-26
0.118004,12,1664,8066,12,-103,-7
0.118142,-5,1707,8072,63,-64,-32
0.118283,14,1678,8040,19,-96,-13
0.118422,-55,1666,8111,69,-58,-13
0.118561,16,1663,8073,50,-84,-32
0.1187,-14,1673,8053,19,-52,-20
0.11884,-4,1730,8064,56,-64,-26
0.118979,12,1680,8132,25,-58,-7
0.119119,-32,1653,8119,44,-103,-32
0.119257,37,1665,8102,69,-58,-7
0.1194,-22,1709,8073,-13,-64,-26
0.119536,16,1691,8068,100,-90,-39
0.119676,-1,1699,8105,6,-39,-1
0.119815,-23,1672,8096,31,-90,-26
0.119954,45,1655,8136,81,-84,-51
0.120093,-15,1689,8137,-38,-33,31
0.120233,-51,1701,8083,113,-116,-64
0.120372,-15,1671,8121,12,-39,-13
0.120511,29,1694,8100,81,-90,-45
0.120651,27,1632,8102,25,-58,31
0.12079,2,1665,8097,31,-58,-51
0.12093,21,1698,8110,63,-90,-13
0.121069,-2,1673,8136,6,-64,-13
0.121208,9,1721,8170,119,-64,-39
0.121347,47,1719,8116,-7,-39,-1
0.121487,-8,1725,8114,44,-96,-39
0.121626,32,1706,8104,25,-64,-13
0.121765,20,1709,8100,69,-96,-26
0.121907,-11,1697,8060,19,-58,-20
0.122044,-24,1650,8109,56,-84,-1
0.122183,-73,1655,8131,37,-45,-39
0.122323,30,1648,8074,44,-90,-1
0.122462,-39,1629,8067,69,-71,-51
0.122601,-21,1681,8056,6,-39,-26
0.122741,3,1725,8062,0,-77,31
0.122883,21,1672,8092,81,-84,-45
0.123019,-9,1671,8028,63,-84,-26
0.123159,20,1724,8069,-7,-52,-13
0.123298,-18,1708,8056,100,-64,-20
0.123437,5,1681,8028,-19,-71,-20
0.123577,20,1679,8053,100,-122,-39
0.123716,2,1675,8099,37,-26,-26
0.123855,-9,1664,8074,6,-90,18
0.123994,3,1695,8094,100,-71,-45
0.124134,2,1702,8127,6,-52,-13
0.124273,42,1732,8097,37,-109,-26
0.124413,26,1672,8119,69,-33,-32
0.124552,-6,1682,8125,19,-84,-39
0.124691,-10,1711,8117,50,-64,-1
0.12483,21,1703,8161,75,-96,-32
0.12497,-41,1668,8093,25,-58,-13
0.125109,22,1683,8083,63,-90,-20
0.125248,-1,1714,8077,25,-45,-1
0.125388,-5,1656,8078,37,-84,-51
0.125527,30,1697,8109,69,-71,-7
0.125666,-23,1642,8107,44,-39,-32
0.125805,-8,1640,8076,50,-71,-13
0.125945,9,1638,8054,19,-90,-51
0.126084,38,1671,8093,44,-52,44
0.126223,-28,1687,8183,63,-71,-70
0.126363,-18,1708,8138,25,-84,-20
0.126502,-9,1673,8137,56,-64,-7
0.126642,-40,1706,8135,31,-84,-32
0.126781,-55,1686,8101,56,-71,-13
0.12692,-43,1678,8073,12,-64,-45
0.127059,-2,1665,8090,94,-103,12
0.127199,-2,1642,8062,0,-58,-39
0.127338,-33,1680,8092,63,-109,-32
0.127477,28,1711,8068,37,-58,6
0.127616,12,1743,8057,44,-71,-26
0.127756,10,1696,8085,37,-64,-32
0.127897,17,1718,8112,88,-96,-32
0.128035,38,1719,8097,-7,-58,25
0.128174,35,1725,8092,31,-84,-26
0.128314,-28,1644,8099,81,-77,-58
0.128453,-15,1672,8058,12,-45,6
0.128592,-69,1671,8086,56,-90,-32
0.128732,33,1738,8079,0,-45,-13
0.128871,-24,1672,8057,81,-109,-7
0.12901,44,1671,8059,25,-52,-32
0.129149,-6,1740,8056,50,-90,-20
0.129288,-28,1706,8070,56,-96,-32
0.129428,13,1694,8110,0,-58,-26
0.129567,-5,1740,8089,31,-71,6
0.129706,21,1727,8110,81,-77,-64
0.129846,-20,1661,8168,56,-64,-7
0.129985,-12,1668,8134,-7,-58,-20
0.130124,27,1674,8021,88,-84,-20
0.130264,-1,1690,8085,19,-39,-20
0.130403,-12,1681,8140,75,-116,-32
0.130542,-25,1662,8061,31,-26,6
0.130682,-14,1651,8070,12,-122,-20
0.130821,12,1675,8114,107,-77,-58
0.13096,-25,1670,8096,-19,-58,6
0.1311,0,1709,8068,69,-71,-20
0.131239,27,1686,8136,50,-45,-26
0.131378,38,1668,8154,75,-122,-39
0.131518,-12,1697,8104,-7,-58,6
0.131657,-32,1700,8096,69,-71,-39
0.131796,-3,1727,8063,37,-58,12
0.131936,33,1726,8100,44,-90,-26
0.132075,-27,1689,8130,31,-77,-58
0.132214,49,1695,8120,75,-58,-26
0.132353,60,1729,8103,44,-52,-7
0.132493,47,1714,8105,6,-90,-26
0.132632,-28,1726,8115,113,-90,-39
0.132771,-12,1677,8070,0,-58,25
0.132911,-49,1706,8122,75,-96,-64
0.13305,-18,1692,8074,-25,-7,31
0.133189,4,1668,8100,100,-122,-51
0.133329,-88,1711,8107,19,-64,18
0.133468,45,1687,8116,75,-84,-70
0.133607,17,1711,8133,50,-84,31
0.133747,52,1694,8076,19,-52,-58
0.133886,32,1732,8060,44,-84,-13
0.134025,6,1718,8059,37,-64,-20
0.134165,-11,1700,8018,63,-58,-32
0.134304,38,1695,8102,37,-84,6
0.134443,21,1706,8105,37,-77,-32
0.134583,-7,1709,8064,50,-71,-26
0.134722,-10,1664,8030,-25,-39,12
0.134861,12,1704,8067,107,-96,-51
0.135001,21,1710,8074,25,-71,12
0.13514,30,1747,8093,31,-52,-39
0.135279,11,1696,8083,88,-103,-7
0.135419,14,1643,8082,37,-52,-39
0.135558,-15,1716,8109,37,-96,-13
0.135697,5,1667,8082,44,-52,-20
0.135836,-21,1687,8125,31,-64,-20
0.135976,9,1687,8046,81,-122,-7
0.136115,29,1634,8099,31,-39,-26
0.136254,39,1576,8123,31,-52,-26
0.136393,-5,1659,8154,81,-109,-13
0.136533,34,1729,8060,19,-77,-32
0.136672,8,1650,8070,31,-39,-39
0.136812,32,1676,8111,50,-109,-13
0.136951,4,1695,8117,31,-13,25
0.13709,-7,1739,8086,56,-116,-76
0.13723,21,1716,8068,37,-64,-1
0.137369,34,1667,8142,50,-26,-13
0.137508,-12,1649,8118,50,-103,-32
0.137648,42,1657,8070,31,-77,-32
0.137787,-8,1679,8032,56,-52,6
0.137926,-27,1700,8068,31,-96,-32
0.138066,-18,1721,8111,63,-64,-51
0.138205,-20,1682,8089,50,-90,25
0.138344,-58,1692,8009,37,-39,-39
0.138484,20,1651,8060,31,-77,-45
0.138623,-7,1690,8135,50,-84,12
0.138762,4,1724,8172,6,-52,-20
0.138902,33,1691,8012,81,-128,-32
0.139041,13,1698,8012,25,6,-7
0.13918,16,1678,8096,31,-167,-58
0.139319,15,1684,8055,75,-1,6
0.139459,49,1684,8069,12,-90,12
0.139598,-4,1674,8088,63,-58,-70
0.139737,13,1702,8084,25,-96,-1
0.13988,-4,1686,8069,69,-64,-45
0.140016,-10,1653,8098,19,-52,12
0.140155,6,1689,8114,25,-84,-20
0.140295,11,1739,8138,75,-64,-51
0.140434,-5,1643,8097,12,-109,12
0.140573,30,1716,8094,63,-13,-51
0.140713,56,1699,8026,50,-96,-1
0.140852,34,1699,8072,31,-77,-58
0.140991,42,1733,8073,6,-58,44
0.141131,79,1669,8075,75,-84,-76
0.14127,26,1710,8059,69,-96,-13
0.141409,2,1689,8104,19,-33,6
0.141549,-36,1622,8007,81,-84,-20
0.141688,-13,1680,8056,19,-77,-45
0.141827,1,1703,8108,63,-84,-26
0.141967,11,1714,8131,0,-33,18
0.142106,-44,1664,8073,75,-103,-70
0.142245,28,1716,8048,56,-96,-26
0.142385,1,1689,8064,6,-52,37
0.142524,1,1719,8083,44,-52,-64
0.142663,-8,1677,8075,81,-116,-13
0.142802,-26,1653,8043,12,-52,-7
0.142942,25,1674,8070,44,-77,-45
0.143081,10,1695,8056,63,-77,-1
0.14322,30,1681,8087,50,-71,-76
0.14336,26,1680,8103,19,-52,31
0.143499,33,1715,8056,81,-116,-45
0.143638,-14,1689,8084,6,-58,-7
0.143778,-16,1702,8067,81,-71,-20
0.143917,6,1717,8031,31,-52,-20
0.144056,28,1657,8080,19,-90,-1
0.144196,-12,1674,8100,75,-52,-58
0.144335,-31,1684,8055,31,-122,-1
0.144474,1,1708,8052,44,-45,-13
0.144614,19,1699,8015,50,-90,-51
0.144753,17,1671,8081,63,-45,-1
0.144892,22,1658,8054,19,-77,-13
0.145032,20,1715,8024,75,-128,-58
0.145171,-9,1719,7999,12,-1,12
0.14531,5,1694,8111,56,-90,-20
0.14545,23,1638,8134,88,-77,-70
0.145591,19,1671,8083,19,-64,44
0.145728,14,1672,8056,50,-116,-58
0.145867,-8,1668,8080,0,-7,6
0.146007,50,1732,8109,94,-71,-32
0.146146,32,1690,8137,6,-77,-7
0.146285,19,1706,8048,63,-71,-58
0.146425,20,1683,8050,25,-84,12
0.146564,-26,1684,8070,37,-58,-7
0.146703,35,1688,8101,56,-84,-64
0.146843,81,1692,8103,6,-58,18
0.146982,24,1693,8086,88,-103,-32
0.147121,4,1663,8105,37,-58,-39
0.147261,-10,1649,8122,44,-58,-1
0.147403,28,1611,8110,44,-77,-20
0.14754,-21,1723,8091,75,-96,-51
0.147679,1,1744,8066,19,-52,-1
0.147818,11,1660,8075,19,-58,6
0.147958,-8,1678,8066,50,-64,-51
0.148097,39,1669,8092,31,-58,-26
0.148236,14,1679,8088,81,-122,-32
0.148375,18,1718,8043,12,-33,-13
0.148515,26,1678,8044,44,-52,-13
0.148654,-67,1648,8060,56,-77,-20
0.148793,5,1698,8063,12,-84,-20
0.148933,40,1685,8059,69,-103,-32
0.149072,-13,1697,8039,31,-20,-1
0.149211,22,1698,8026,50,-90,-39
0.149351,-18,1732,8075,37,-77,-20
0.14949,27,1699,8111,19,-45,-13
0.149629,-35,1706,8075,81,-77,-45
0.149768,-5,1695,8101,0,-77,12
0.149908,20,1705,8073,100,-77,-32
0.150047,-30,1699,8034,12,-71,-58
0.150186,2,1740,8077,44,-58,18
0.150326,-32,1674,8099,31,-77,-13
0.150465,21,1643,8074,44,-64,-20
0.150604,22,1710,8052,56,-116,-32
0.150744,-15,1658,8078,50,-71,-51
0.150883,7,1675,8110,25,-39,18
0.151022,93,1654,8108,31,-103,-64
0.151162,43,1714,8039,50,-33,25
0.151301,23,1742,8128,37,-77,-39
0.151441,41,1688,8114,63,-103,-26
0.15158,21,1717,8064,19,-20,-1
0.151719,-7,1676,8102,50,-109,-32
0.151858,-6,1727,8130,44,-64,-13
0.151997,-8,1704,8095,63,-77,-45
0.152137,-17,1700,8065,0,-77,-13
0.152283,-25,1650,8068,88,-58,-7
0.152416,22,1671,8117,12,-90,-26
0.152555,29,1693,8088,69,-58,-51
0.152695,68,1706,8148,44,-77,37
0.152833,20,1665,8065,6,-77,-45
0.152973,3,1681,8060,63,-26,-32
0.153112,-27,1653,8071,44,-103,-20
0.153251,54,1656,8061,56,-77,-39
0.153391,-8,1671,8058,-7,-52,6
0.153531,-12,1668,8087,94,-90,-45
0.153669,-17,1678,8115,-13,-45,12
0.153809,-17,1692,8083,69,-84,-64
0.153948,-9,1676,8052,37,-33,25
0.154087,31,1700,8072,63,-109,-64
0.154227,-7,1727,8172,25,-20,-13
0.154366,-16,1663,8130,19,-103,-20
0.154505,27,1663,8085,75,-52,12
0.154646,17,1652,8080,56,-90,-76
0.154784,-14,1680,8105,56,-64,31
0.154925,-19,1696,8070,0,-39,-20
0.155063,5,1661,8044,88,-128,-64
0.155205,12,1702,8066,31,-45,-1
0.155341,-36,1748,8090,19,-58,-7
0.155481,11,1699,8114,113,-116,-64
0.15562,16,1715,8066,-32,-20,6
0.15576,12,1681,8105,81,-71,6
0.155899,21,1707,8078,50,-84,-89
0.156039,7,1702,8056,19,-84,12
0.156178,-12,1681,8048,37,-45,-39
0.156316,-28,1699,8080,31,-84,18
0.156457,26,1674,8157,50,-84,-64
0.156595,9,1595,8087,63,-71,-13
0.156734,26,1686,8128,63,-64,-13
0.156874,27,1698,8103,19,-77,-13
0.157013,-24,1692,8113,69,-64,-20
0.157152,14,1716,8043,0,-96,-58
0.157292,-12,1717,8110,50,-58,12
0.157431,41,1713,8075,56,-77,-32
0.15757,-59,1714,8070,56,-90,-32
0.15771,-33,1717,8096,12,-71,-1
0.157849,33,1645,8072,56,-71,-26
0.157988,-4,1670,8056,50,-90,-39
0.158127,73,1688,8080,50,-58,-13
0.158267,27,1645,8115,69,-71,-32
0.158406,6,1627,8081,12,-71,-39
0.158545,7,1658,8125,75,-77,18
0.158685,40,1666,8107,6,-7,-26
0.158825,-3,1729,8060,75,-109,-32
0.158964,-40,1703,8087,37,-84,-32
0.159103,49,1684,8057,-7,-45,-7
0.159242,38,1737,8033,75,-90,-58
0.159382,-14,1735,8084,25,-58,12
0.159521,-66,1691,8140,50,-84,-26
0.159661,-7,1717,8145,50,-84,-51
0.1598,-12,1658,8098,19,-33,25
0.15994,-40,1709,8065,69,-77,-58
0.160078,-21,1705,8032,31,-109,25
0.160217,-14,1661,8073,69,-33,-32
0.160357,6,1673,8122,31,-109,-32
0.160496,27,1672,8064,44,-33,-13
0.160635,-44,1695,8143,50,-64,-13
0.160775,22,1699,8155,63,-109,-64
0.160915,10,1752,8068,6,-58,-20
0.161053,-7,1690,8104,44,-64,-1
0.161193,-32,1672,8078,25,-58,-20
0.161334,24,1698,8138,63,-109,-64
0.161471,43,1693,8114,44,-33,37
0.161611,5,1745,8102,0,-71,-39
0.161751,-13,1703,8048,50,-52,-26
0.161889,26,1665,8097,69,-84,-26
0.16203,-8,1701,8157,50,-58,-13
0.162168,-15,1679,8072,6,-64,-1
0.162307,6,1648,8085,75,-71,-32
0.162447,-19,1663,8129,31,-71,-20
0.162586,-36,1677,8096,25,-58,-32
0.162725,10,1683,8120,50,-84,12
0.162864,-16,1702,8126,69,-52,-51
0.163005,-36,1681,8109,44,-103,-26
0.163143,-29,1634,8063,31,-33,-7
0.163283,7,1672,8078,31,-77,-20
0.163422,-16,1695,8119,31,-71,-7
0.163561,-45,1660,8169,50,-71,-39
0.163701,-40,1693,8103,44,-71,-20
0.16384,-16,1709,8084,63,-96,-20
0.16398,-37,1685,8061,12,-45,-13
0.164119,-5,1707,8085,69,-84,-26
0.164258,-14,1697,8091,12,-52,-20
0.164396,-35,1721,8055,88,-90,-7
0.164542,-24,1733,8047,6,-52,-45
0.164676,32,1708,8121,44,-90,-13
0.164815,8,1677,8098,44,-58,6
0.164956,31,1726,8075,50,-71,-58
0.165094,33,1725,8089,6,-52,6
0.165233,24,1679,8064,37,-77,-32
0.165372,16,1693,8065,63,-84,-26
0.165511,15,1668,8079,56,-52,-32
0.165651,-23,1693,8129,6,-71,-26
0.16579,-23,1702,8120,50,-52,25
0.16593,23,1670,8085,69,-84,-45
0.166069,67,1682,8092,56,-84,-7
0.166208,14,1721,8103,44,-33,-20
0.166349,-50,1718,8139,63,-96,-39
0.166487,-14,1719,8105,-13,-71,-7
0.166626,-44,1673,8093,75,-52,-45
0.166765,7,1695,8124,12,-58,6
0.166905,6,1723,8099,37,-96,-32
0.167045,-39,1735,8046,31,-71,-58
0.167184,-28,1707,8061,81,-90,12
0.167323,-57,1653,8119,6,-26,-13
0.167462,-26,1694,8117,69,-135,-39
0.167601,-13,1707,8144,37,-7,-39
0.167741,18,1677,8082,37,-109,31
0.16788,-4,1739,8123,81,-71,-58
0.168019,0,1665,8086,12,-52,-7
0.168159,6,1752,8099,31,-109,-20
0.168301,52,1721,8103,75,-7,-32
0.168438,-24,1713,8076,37,-116,-13
0.168577,58,1704,8091,25,-52,-26
0.168716,-3,1696,8051,56,-90,-7
0.168855,-40,1678,8125,50,-64,-32
0.168995,-78,1659,8100,37,-71,6
0.169134,-43,1679,8031,37,-116,-45
0.169273,21,1643,8050,31,-33,6
0.169413,9,1638,8099,25,-45,-7
0.169552,2,1718,8151,88,-103,-58
0.169691,1,1743,8132,12,-71,6
0.169831,11,1741,8136,69,-64,-32
0.16997,29,1705,8101,-7,-58,12
0.170109,8,1740,8116,88,-96,-58
0.170249,-21,1699,8106,25,-58,-20
0.170388,-45,1687,8122,31,-58,6
0.170527,-38,1714,8090,75,-90,-39
0.170667,-24,1734,8100,19,-58,-20
0.170806,-8,1697,8079,69,-84,-20
0.170945,78,1750,8056,-7,-39,-13
0.171085,1,1701,8081,81,-109,-32
0.171224,51,1683,8143,6,-13,-7
0.171363,-1,1617,8175,50,-135,-32
0.171503,8,1670,8100,44,-39,18
0.171642,-16,1671,8087,-13,-84,-51
0.171781,0,1667,8142,94,-84,-32
0.17192,-12,1631,8100,6,-52,25
0.17206,2,1729,8089,69,-77,-58
0.172199,32,1686,8094,56,-71,18
0.172338,-24,1678,8053,44,-58,-58
0.172478,25,1699,8128,69,-77,-39
0.172617,40,1749,8085,-25,-64,31
0.172756,5,1628,8150,94,-122,-76
0.172896,20,1706,8113,0,-26,6
0.173035,-23,1665,8115,56,-71,-20
0.173174,-50,1709,8118,25,-58,-45
0.173314,-3,1670,8120,69,-84,-20
0.173453,31,1698,8077,25,-90,-1
0.173592,31,1708,8088,44,-52,-45
0.173731,23,1693,8056,56,-64,-7
0.173871,-18,1669,8096,-7,-58,12
0.17401,-14,1675,8033,75,-103,-32
0.17415,17,1659,8093,50,-58,-83
0.174289,-11,1670,8085,56,-77,31
0.174428,19,1725,8072,25,-52,-13
0.174567,9,1678,8087,69,-64,-58
0.174707,38,1685,8104,69,-71,-1
0.174846,32,1659,8100,6,-64,-26
0.174985,44,1699,8022,88,-103,-51
0.175124,-28,1655,8090,50,-45,-7
0.175264,6,1669,8117,0,-45,-1
0.175403,-18,1694,8067,88,-116,-39
0.175543,27,1693,8082,6,-58,-13
0.175682,0,1698,8095,56,-39,-7
0.175822,-8,1700,8100,31,-122,-70
0.175962,-27,1679,8146,81,-39,37
0.1761,-18,1677,8081,6,-103,-76
0.176243,7,1662,8117,69,-33,12
0.17638,-22,1719,8087,25,-103,-64
0.176518,-33,1674,8084,50,-45,25
0.176657,-2,1723,8100,25,-84,-32
0.176797,-11,1683,8091,69,-45,-26
0.176937,-2,1662,8070,37,-103,-7
0.177075,11,1736,8057,63,-39,-26
0.177214,21,1675,8065,12,-90,-20
0.177355,-11,1677,8090,69,-58,-39
0.177493,-27,1717,8104,25,-84,-13
0.177632,8,1690,8090,56,-52,-39
0.177772,-44,1700,8067,6,-58,12
0.177911,-4,1649,8105,88,-135,-70
0.178051,4,1661,8088,25,-7,-13
0.17819,-11,1662,8063,56,-84,-7
0.178329,25,1683,8038,12,-84,-20
0.178469,6,1671,8082,50,-26,-26
0.178608,-27,1644,8135,50,-84,-26
0.178747,3,1707,8102,69,-77,-20
0.178886,30,1659,8051,12,-52,-20
0.179026,-18,1660,8070,50,-90,-13
0.179166,4,1680,8087,69,-84,-32
0.179304,1,1690,8053,31,-52,-32
0.179444,33,1681,8099,19,-71,6
0.179585,99,1672,8079,75,-52,-39
0.179722,77,1684,8082,25,-116,-26
0.179862,17,1689,8080,37,-58,-45
0.180001,-43,1741,8083,31,-58,-1
0.18014,-10,1751,8069,50,-64,-20
0.18028,-25,1688,8075,44,-71,-51
0.180419,14,1659,8100,63,-84,-7
0.180558,-29,1701,8098,0,-39,-1
0.180698,19,1705,8032,56,-90,-39
0.180837,-9,1675,8045,63,-77,-51
0.180976,7,1679,8066,12,-64,18
0.181115,-34,1658,8106,63,-103,-45
0.181255,-51,1691,8070,44,-20,-13
0.181396,10,1709,8076,50,-116,-39
0.181534,0,1662,8101,25,-45,12
0.181673,19,1717,8097,44,-64,-58
0.181812,2,1729,8077,69,-90,-7
0.181951,17,1704,8078,25,-52,-13
0.182091,60,1677,8072,56,-84,-45
0.18223,61,1649,8090,50,-64,-1
0.182369,1,1693,8102,19,-58,-32
0.182509,38,1632,8095,44,-96,-51
0.182648,48,1664,8032,44,-52,31
0.182787,-1,1688,8084,37,-103,-76
0.182927,-9,1651,8097,56,-33,31
0.183066,-6,1694,8091,19,-90,-45
0.183205,-63,1717,8088,75,-84,-58
0.183345,-24,1631,8107,19,-39,6
0.183484,5,1598,8107,31,-96,-13
0.183623,-18,1673,8145,44,-64,6
0.183762,-24,1684,8099,69,-52,-51
0.183902,-14,1661,8055,37,-96,18
0.184041,-31,1646,8068,81,-77,-51
0.184182,-13,1673,8053,-13,-58,-32
0.184321,-12,1638,8082,69,-71,-20
0.18446,-44,1644,8082,37,-64,-13
0.184599,2,1641,8074,44,-84,-39
0.184738,-58,1691,8069,31,-52,-13
0.184877,-39,1710,8066,75,-90,-26
0.185016,5,1658,8082,0,-52,-32
0.185155,-51,1721,8107,50,-84,6
0.185295,24,1703,8097,56,-33,-39
0.185434,1,1691,8079,12,-122,-39
0.185574,9,1706,8040,56,-39,-1
0.185713,15,1640,8029,19,-84,-32
0.185853,32,1698,8020,63,-39,-7
0.185991,17,1674,8056,37,-90,-26
0.186131,6,1705,8074,31,-64,6
0.186271,-13,1693,8080,37,-84,-39
0.186411,-11,1675,8064,69,-64,-7
0.186549,-12,1726,8121,69,-77,-13
0.186688,5,1689,8087,6,-71,-58
0.186827,12,1655,8146,63,-71,18
0.186967,60,1717,8160,37,-77,-58
0.187106,32,1739,8154,63,-58,-1
0.187246,-28,1674,8149,19,-77,-20
0.187384,-24,1716,8061,69,-71,-39
0.187525,-10,1713,8124,19,-52,6
0.187664,21,1720,8108,50,-77,-45
0.187803,-15,1688,8112,50,-26,-7
0.187942,11,1658,8072,25,-103,-39
0.188082,7,1675,8124,44,-45,-13
0.188221,9,1703,8142,75,-71,-26
0.18836,10,1733,8079,50,-64,-7
0.188499,-34,1631,8134,50,-64,-26
0.188639,37,1648,8095,31,-77,-39
0.188778,-5,1649,8098,44,-71,12
0.188917,34,1712,8109,63,-90,-26
0.189057,71,1683,8095,44,-39,-70
0.189196,-34,1683,8153,44,-96,31
0.189335,-14,1684,8124,63,-71,-26
0.189475,22,1674,8087,44,-64,-32
0.189614,58,1718,8065,31,-84,-20
0.189753,-2,1734,8095,63,-103,-13
0.189893,19,1712,8104,-7,-26,-20
0.190032,22,1692,8146,81,-103,-32
0.190171,-30,1707,8097,50,-58,-32
0.19031,-58,1733,8117,0,-58,12
0.19045,12,1672,8083,100,-116,-58
0.190589,11,1691,8010,19,-71,6
0.190729,10,1703,8082,31,-77,-39
0.190868,-11,1720,8069,44,-45,-7
0.191011,-28,1724,8039,50,-122,-26
0.191146,-12,1672,8047,69,-45,-1
0.191286,47,1674,8090,31,-90,-58
0.191425,-15,1711,8052,31,-52,-7
0.191564,-12,1716,8085,31,-58,25
0.191704,-27,1718,8118,44,-103,-64
0.191843,-23,1691,8120,63,-64,18
0.191983,-28,1680,8107,37,-77,-32
0.192122,16,1660,8105,25,-90,-26
0.192261,32,1662,8110,37,-64,-7
0.192401,28,1704,8106,69,-71,-20
0.192539,-1,1695,8088,50,-103,-7
0.192679,35,1718,8150,25,-39,-45
0.19282,-29,1716,8084,44,-84,6
0.192958,-8,1755,8093,37,-52,-51
0.193097,0,1674,8079,19,-84,12
0.193236,-7,1674,8067,56,-64,-20
0.193377,6,1635,8105,31,-77,-64
0.193515,-10,1682,8100,25,-26,37
0.193654,-23,1700,8138,94,-122,-76
0.193794,42,1630,8067,-19,-45,31
0.193933,-22,1667,8142,69,-116,-58
0.194072,-23,1666,8094,25,-33,12
0.194211,17,1665,8107,44,-122,-64
0.194351,-15,1694,8074,19,-13,37
0.19449,-56,1727,8137,75,-116,-83
0.194631,3,1652,8112,19,-26,25
0.194769,6,1687,8096,37,-109,-64
0.194908,27,1689,8140,37,-39,31
0.195047,-11,1683,8167,56,-109,-51
0.195186,5,1667,8120,19,-64,-20
0.195326,-7,1696,8142,50,-33,6
0.195465,-2,1683,8078,44,-103,-64
0.195604,17,1705,8069,25,-39,12
0.195744,-16,1705,8128,81,-64,-39
0.195883,7,1668,8090,12,-71,-20
0.196023,22,1692,8097,63,-84,-51
0.196164,-24,1678,8110,25,-58,25
0.196302,-25,1676,8088,6,-52,-45
0.19644,-23,1701,8113,119,-116,-32
0.19658,37,1700,8097,-7,-58,-1
0.19672,21,1723,8063,75,-39,-39
0.19686,-45,1657,8144,19,-84,6
0.196998,-3,1659,8076,88,-96,-45
0.197137,-33,1676,8061,19,-33,12
0.197276,-37,1672,8071,31,-64,-20
0.197416,-3,1660,8065,44,-84,-26
0.197557,-16,1684,8127,75,-71,-45
0.197694,3,1698,8106,-7,-26,6
0.197834,-26,1635,8119,81,-90,-51
0.197974,13,1692,8098,37,-58,12
0.198112,-2,1660,8114,25,-77,-32
0.198252,13,1677,8096,44,-84,-20
0.198391,34,1674,8078,50,-58,-13
0.19853,-22,1697,8069,12,-58,-7
0.19867,27,1655,8117,69,-84,-45
0.198809,16,1672,8109,25,-58,-26
0.198948,-11,1646,8085,50,-77,-45
0.199088,61,1696,8121,25,-33,25
0.199227,29,1661,8108,56,-96,-70
0.199366,25,1659,8078,25,-84,18
0.199506,6,1677,8124,56,-64,-64
0.199645,7,1641,8106,69,-58,-7
0.199784,10,1667,8154,-32,-64,-20
0.199923,33,1725,8133,113,-90,-58
0.200064,9,1691,8126,-7,-52,31
0.200202,-41,1685,8095,75,-71,-45
0.200342,-29,1702,8139,56,-58,-39
0.200481,-12,1713,8151,6,-58,6
0.20062,-5,1663,8079,50,-96,-45
0.200761,45,1605,8096,31,-71,-13
0.200899,26,1632,8105,44,-52,-13
0.20104,-11,1732,8062,25,-45,-20
0.201178,-38,1705,8056,63,-96,-26
0.201317,16,1707,8064,44,-45,-51
0.201456,0,1715,8175,19,-77,50
0.201596,33,1722,8189,37,-71,-70
0.201735,-25,1735,8156,75,-84,-20
0.201874,3,1646,8123,25,-64,-7
0.202013,-31,1647,8142,37,-52,-13
0.202153,-17,1676,8139,56,-90,-58
0.202292,-24,1728,8124,25,-58,-1
0.202431,14,1660,8075,69,-84,-58
0.202571,-6,1616,8189,12,-39,25
0.20271,4,1712,8133,63,-109,-58
0.202849,33,1673,8099,50,-64,12
0.202989,2,1703,8089,44,-103,-64
0.203128,-8,1673,8111,37,-26,31
0.203269,6,1695,8130,31,-109,-51
0.203407,-54,1677,8106,25,-84,-20
0.203546,-8,1696,8129,75,-26,-13
0.203686,12,1730,8088,56,-103,-32
0.203826,-12,1678,8140,6,-96,-20
0.203964,61,1688,8170,100,-45,-32
0.204103,-5,1662,8180,-13,-77,-13
0.204242,-20,1702,8074,56,-45,-20
0.204382,-21,1690,8099,56,-103,-26
0.204521,-21,1684,8139,19,-52,-13
0.20466,-12,1690,8144,81,-45,-13
0.2048,3,1664,8116,44,-122,-51
0.204939,-28,1698,8096,19,-39,-1
0.205078,-13,1660,8163,37,-90,-32
0.205217,-25,1669,8158,50,-58,-7
0.205357,-18,1673,8116,44,-90,-32
0.205496,-31,1662,8148,25,-58,-20
0.205636,38,1687,8133,69,-84,6
0.205776,-42,1713,8067,6,-45,-32
0.205915,6,1780,8120,88,-96,-39
0.206054,-22,1746,8150,0,-33,-1
0.206193,-19,1669,8150,75,-128,-32
0.206332,-2,1707,8117,50,-52,-13
0.206473,15,1753,8098,31,-71,12
0.206611,-46,1672,8075,37,-84,-51
0.20675,-49,1664,8128,44,-71,-32
0.206889,-25,1704,8141,37,-77,-20
0.207029,11,1767,8137,56,-64,-32
0.207169,-2,1689,8128,-13,-58,-7
0.207307,1,1685,8169,94,-71,-26
0.207448,-14,1747,8168,12,-84,-39
0.207586,4,1660,8165,81,-90,-13
0.207726,-1,1695,8099,6,-33,12
0.207865,-15,1728,8115,63,-64,-20
0.208004,-38,1724,8110,50,-96,-45
0.208143,12,1747,8124,56,-39,-13
0.208283,-47,1686,8177,44,-109,-32
0.208422,-21,1720,8144,37,-45,18
0.208561,32,1677,8129,63,-84,-51
0.208701,23,1652,8131,31,-77,-20
0.20884,14,1685,8146,63,-77,-20
0.20898,28,1717,8105,31,-39,-1
0.209119,28,1707,8069,31,-84,-58
0.209258,20,1703,8145,81,-77,12
0.209402,-27,1688,8101,44,-64,-20
0.209538,-69,1672,8160,25,-58,-32
0.209676,-36,1639,8121,31,-71,-7
0.209815,12,1654,8140,88,-122,-45
0.209954,-25,1648,8146,19,-26,-13
0.210094,-42,1693,8120,19,-64,-26
0.210233,29,1694,8174,69,-71,-32
0.210372,-35,1686,8153,56,-77,-7
0.210512,21,1747,8140,0,-33,-13
0.210651,-4,1642,8170,63,-77,-20
0.21079,16,1646,8160,44,-103,-13
0.21093,25,1656,8120,50,-77,-20
0.211069,37,1721,8070,37,-77,-58
0.211209,-1,1670,8095,56,-52,25
0.211348,-33,1696,8146,56,-77,-51
0.211487,36,1686,8159,19,-77,6
0.211626,-10,1706,8121,44,-71,-32
0.211766,30,1694,8117,63,-90,-51
0.211905,61,1686,8122,37,-58,-1
0.212044,44,1713,8101,31,-58,-13
0.212184,56,1669,8106,69,-109,-51
0.212323,42,1740,8103,25,-33,-7
0.212463,12,1695,8080,81,-84,-26
0.212601,-63,1648,8083,-32,-52,-32
0.212742,15,1677,8123,113,-96,-26
0.21288,6,1655,8106,-7,-64,-13
0.21302,-19,1677,8097,44,-45,-20
0.213159,-4,1704,8045,44,-71,-26
0.213298,17,1685,8121,75,-77,-13
0.213438,20,1654,8114,69,-77,-64
0.213577,-6,1672,8099,0,-77,31
0.21372,17,1707,8105,69,-77,-39
0.213855,-5,1730,8149,56,-64,-26
0.213996,20,1706,8121,44,-84,-20
0.214134,36,1671,8141,12,-52,-7
0.214274,17,1678,8099,69,-90,-1
0.214414,-16,1717,8061,37,-52,-51
0.214552,-15,1736,8063,63,-84,-20
0.214692,-7,1690,8055,50,-77,12
0.214831,-1,1720,8115,75,-52,-58
0.21497,-12,1700,8137,6,-84,-1
0.215109,9,1715,8069,37,-33,-32
0.215248,2,1706,8095,107,-122,-39
0.215388,44,1675,8108,-19,-71,-7
0.215528,45,1650,8077,69,-52,-20
0.215666,61,1689,8052,56,-84,-26
0.215808,41,1708,8059,6,-45,-20
0.215946,1,1689,8026,88,-84,-20
0.216085,17,1671,8067,31,-90,-32
0.216224,27,1657,8102,12,-13,-1
0.216363,26,1676,8037,81,-109,-13
0.216503,-42,1617,8100,37,-45,-51
0.216642,-4,1696,8054,44,-84,-13
0.216783,-7,1694,8049,44,-71,-32
0.21692,17,1681,8057,12,-58,12
0.21706,19,1648,8104,50,-71,-32
0.217199,-32,1708,8068,56,-96,-39
0.217339,38,1713,8041,44,-45,-20
0.217478,-6,1698,8058,0,-64,6
0.217617,22,1689,8046,56,-64,-39
0.217756,13,1687,8020,25,-64,6
0.217896,27,1715,7980,50,-84,-51
0.218035,-1,1643,8093,37,-52,-1
0.218174,-20,1685,8124,63,-96,-1
0.218314,37,1705,8065,44,-45,-39
0.218453,20,1702,8056,50,-77,-32
0.218592,8,1662,8029,25,-90,12
0.218732,-8,1672,8115,44,-64,-32
0.218871,38,1692,8082,56,-77,-39
0.21901,53,1672,7992,12,-45,-7
0.21915,41,1691,8028,56,-103,-45
0.219289,6,1669,8028,31,-52,-13
0.219428,-14,1694,8051,63,-90,-7
0.219568,-15,1698,8114,31,-84,-70
0.219707,6,1704,8076,37,-26,25
0.219846,-44,1672,8020,75,-128,-39
0.219986,-45,1681,8048,44,-39,-7
0.220125,11,1692,8091,25,-71,-20
0.220264,21,1654,8102,75,-84,-58
0.220403,-18,1665,8116,25,-84,44
0.220543,69,1670,8056,56,-52,-76
0.220682,9,1699,8002,56,-90,12
0.220822,-22,1677,8062,37,-58,-7
0.220961,-27,1626,8065,37,-77,-45
0.2211,0,1624,8110,37,-52,-13
0.221239,23,1672,8064,69,-84,-13
0.221379,12,1675,8035,37,-45,-45
0.221518,50,1669,8059,50,-84,-1
0.221658,14,1720,8027,31,-84,-7
0.221797,-7,1703,8025,63,-64,-45
0.221936,40,1668,8044,37,-71,-13
0.222075,-4,1644,8047,31,-71,-20
0.222215,-22,1688,7973,31,-84,-32
0.222354,-4,1714,8027,75,-45,18
0.222493,4,1662,8053,44,-84,-51
0.222633,-33,1696,8043,50,-64,-26
0.222772,16,1728,8066,50,-77,-7
0.222911,-1,1689,8027,25,-109,-32
0.223051,-21,1676,8089,25,-39,12
0.22319,6,1684,8058,56,-84,-20
0.223329,39,1702,7967,50,-84,-39
0.223469,-3,1703,8024,25,-71,-7
0.223608,25,1678,8056,63,-84,-58
0.223748,73,1731,8002,56,-71,25
0.223888,42,1671,8039,6,-52,-39
0.224026,-12,1686,8069,63,-103,-51
0.224165,5,1667,7992,44,-26,-1
0.224305,55,1677,8024,6,-52,6
0.224445,27,1675,8014,63,-77,-51
0.224584,6,1692,8006,37,-77,-20
0.224722,4,1645,8048,31,-64,-32
0.224862,62,1690,8067,44,-90,-32
0.225001,6,1644,8024,25,-45,12
0.22514,-14,1721,8032,44,-103,-51
0.225279,59,1686,8091,37,-33,-1
0.225419,31,1704,8068,44,-109,-45
0.225558,5,1691,8071,6,-64,12
0.225698,0,1678,8088,69,-71,-39
0.225837,38,1674,8025,6,-77,-7
0.225978,29,1671,8014,69,-77,-26
0.226117,44,1674,8035,56,-71,-13
0.226256,11,1700,7999,25,-90,-32
0.226395,-6,1662,7992,25,-20,12
0.226534,19,1678,8022,63,-128,-51
0.226673,39,1699,8042,-7,-13,-7
0.226812,34,1728,8056,75,-71,-13
0.226952,18,1688,8000,37,-96,-51
0.227092,16,1689,8078,50,-58,-26
0.22723,12,1720,8030,12,-77,6
0.22737,72,1683,8003,63,-96,-51
0.227509,59,1689,8014,12,-26,50
0.227648,57,1672,8092,100,-84,-76
0.227788,26,1652,8003,0,-64,6
0.227927,13,1766,8002,100,-84,-39
0.228066,71,1696,8017,0,-52,12
0.228205,10,1651,8034,69,-122,-58
0.228345,-26,1715,8038,6,-20,-1
0.228484,37,1665,8111,69,-84,-7
0.228624,50,1676,8013,44,-103,-51
0.228763,39,1672,8018,56,-20,12
0.228902,68,1708,8005,12,-103,-32
0.229041,42,1732,8046,56,-58,-39
0.229181,21,1661,8000,25,-71,6
0.22932,40,1691,8014,44,-90,-45
0.229459,-1,1712,8035,88,-96,-26
0.229599,30,1724,8039,0,-39,-39
0.229738,9,1708,8057,37,-77,37
0.229877,13,1719,8095,44,-77,-58
0.230017,42,1714,8046,50,-90,-13
0.230156,26,1680,8017,63,-45,-13
0.230295,55,1718,8031,31,-77,-26
0.230435,7,1698,8035,19,-90,-20
0.230574,-4,1665,8034,44,-33,-13
0.230713,3,1742,8042,37,-141,-39
0.230853,38,1735,8045,44,-77,6
0.230992,29,1680,8032,25,-26,-45
0.231131,24,1699,8037,100,-122,-26
0.231271,-48,1667,8015,12,-26,-20
0.23141,-5,1662,8039,19,-71,-20
0.231549,-37,1618,8068,50,-109,-20
0.231693,19,1674,8038,75,-33,-39
0.231828,95,1665,8013,6,-71,-7
0.231967,42,1706,8056,94,-109,-20
0.232107,27,1681,8039,12,-39,-32
0.232246,12,1693,8005,56,-96,-32
0.232385,-9,1725,7974,19,-26,6
0.232524,-5,1687,8037,37,-103,-26
0.232664,7,1680,8070,94,-39,-13
0.232803,12,1722,8063,50,-77,-64
0.232942,25,1718,8040,6,-77,25
0.233082,17,1708,8011,44,-39,-26
0.233221,54,1696,8049,69,-103,-26
0.23336,27,1670,8032,44,-64,-39
0.2335,21,1732,8034,25,-52,-13
0.233639,-3,1696,8018,50,-96,-13
0.233779,1,1623,8035,25,-71,-1
0.233918,3,1716,8021,56,-64,-39
0.234057,-16,1714,8014,63,-103,-32
0.234196,62,1692,8064,-13,-20,-26
0.234336,23,1674,8054,107,-147,-20
0.234475,57,1662,8051,0,-52,-1
0.234614,15,1686,8058,50,-71,-51
0.234753,-41,1738,8026,69,-58,-26
0.234893,28,1665,8091,0,-90,-20
0.235032,49,1647,8069,88,-39,-39
0.235171,-12,1696,8072,0,-90,6
0.23531,28,1676,7981,63,-64,-26
0.23545,-3,1714,7992,25,-52,-20
0.235589,11,1662,8014,69,-71,-32
0.235729,8,1647,8092,50,-109,-13
0.235869,-49,1676,8024,44,-45,-26
0.236009,-80,1738,8040,31,-52,-20
0.236147,2,1646,8064,19,-58,12
0.236286,30,1684,8050,75,-96,-83
0.236425,-1,1647,8003,44,-71,6
0.236565,60,1673,8095,63,-71,-13
0.236704,-42,1626,8089,50,-77,-13
0.236843,-34,1666,8076,19,-58,-39
0.236982,8,1658,8106,44,-96,-26
0.237122,0,1647,8065,50,-84,-7
0.237262,-7,1676,8039,44,-45,-51
0.2374,17,1688,8038,31,-39,-7
0.23754,-5,1687,8071,75,-103,-13
0.237679,36,1654,8067,44,-39,-45
0.237818,13,1703,8058,25,-84,-13
0.237958,-34,1707,8069,56,-71,-39
0.238097,-28,1673,8084,12,-20,12
0.238236,-22,1660,8115,69,-109,-51
0.238376,-15,1698,8141,56,-71,-39
0.238515,-7,1711,8077,19,-52,12
0.238654,-1,1696,8042,63,-109,-70
0.238794,4,1703,8058,-7,-20,37
0.238933,20,1688,8048,69,-84,-58
0.239072,6,1706,8055,19,-77,6
0.239212,16,1667,8090,75,-64,-51
0.239351,-3,1688,8106,31,-90,-32
0.23949,-6,1715,8013,25,-64,-1
0.23963,-33,1723,8085,50,-71,-39
0.239769,-27,1702,8090,12,-64,-13
0.239908,10,1612,8095,44,-71,-39
0.240048,-4,1631,8104,56,-64,-20
0.240187,3,1650,8050,19,-96,-20
0.240326,-6,1703,8113,75,-90,-32
0.240465,24,1653,8075,6,-52,-1
0.240605,-13,1675,8082,75,-90,-32
0.240744,16,1670,8066,12,-71,-7
0.240883,7,1665,8138,69,-71,-26
0.241023,18,1683,8082,56,-58,12
0.241162,-7,1644,8107,31,-77,-45
0.241301,5,1705,8082,37,-84,-45
0.241441,-8,1697,8095,44,-71,-7
0.24158,-11,1711,8165,50,-45,-1
0.241719,-14,1701,8087,12,-77,-45
0.241859,4,1693,8081,50,-90,-1
0.241998,-8,1696,8129,56,-20,-20
0.242137,-41,1633,8074,50,-128,-20
0.242277,-13,1711,8146,31,-52,-13
0.242416,-16,1653,8107,25,-64,-13
0.242555,7,1684,8023,56,-116,-32
0.242695,24,1633,8059,37,-33,12
0.242834,-5,1700,8089,88,-96,-45
0.242973,0,1681,8114,0,-58,-1
0.243113,-26,1680,8068,56,-52,-26
0.243252,20,1702,8070,50,-109,-51
0.243391,-19,1600,8084,56,-45,-20
0.24353,-19,1716,8089,0,-90,-1
0.24367,55,1722,8080,81,-45,-58
0.243809,7,1711,8138,19,-109,-1
0.243948,-41,1675,8145,63,-96,-64
0.244088,-14,1655,8102,31,-33,18
0.244227,-3,1722,8131,56,-103,-64
0.244366,8,1686,8113,37,-20,12
0.244506,27,1647,8100,19,-90,-13
0.244645,27,1681,8126,75,-77,-39
0.244784,20,1709,8071,19,-71,-26
0.244924,-11,1668,8090,50,-96,-20
0.245063,-18,1666,8078,31,-39,-1
0.245202,-8,1673,8131,37,-58,-20
0.245342,-11,1683,8153,69,-116,-58
0.245481,-30,1717,8106,50,-77,-7
0.24562,-18,1710,8103,44,-52,-20
0.24576,40,1691,8105,50,-90,-1
0.245899,-8,1721,8162,63,-96,-45
0.246038,8,1671,8140,0,-45,12
0.246178,20,1654,8102,50,-90,-39
0.246317,4,1703,8097,63,-64,-32
0.246456,-18,1710,8136,44,-96,-7
0.246596,-2,1673,8153,0,-58,6
0.246735,36,1705,8171,69,-84,-58
0.246874,6,1689,8110,31,-45,6
0.247013,-8,1704,8113,63,-90,-45
0.247153,-4,1672,8115,6,-33,18
0.247292,21,1706,8133,94,-122,-64
0.247431,-25,1648,8104,-19,-33,-7
0.247571,-46,1662,8116,113,-116,-20
0.24771,2,1707,8127,-7,-26,-51
0.247849,18,1692,8109,19,-77,44
0.247989,56,1741,8142,94,-96,-89
0.248128,50,1762,8154,31,-45,25
0.248267,-11,1692,8168,31,-90,-51
0.248407,3,1750,8124,37,-58,6
0.248546,29,1684,8094,63,-64,-45
0.248686,-1,1730,8134,56,-116,-20
0.248825,28,1724,8130,-13,-33,6
0.248964,-38,1666,8170,69,-77,-64
0.249103,19,1668,8158,56,-71,-1
0.249243,28,1696,8191,19,-64,-7
0.249382,36,1670,8159,44,-96,-32
0.249521,24,1684,8098,50,-52,-26
0.249661,-7,1686,8127,31,-52,-32
0.2498,61,1721,8092,31,-84,12
0.249939,31,1704,8094,37,-77,-45
0.250079,-38,1692,8152,63,-71,-32
0.250218,10,1682,8113,12,-33,6
0.250357,51,1677,8164,37,-103,-32
0.250496,15,1700,8102,56,-64,-13
0.250636,4,1676,8155,63,-77,-32
0.250775,6,1663,8117,12,-77,-7
0.250914,-26,1622,8098,37,-45,-32
0.251054,-50,1673,8110,56,-84,-32
0.251193,36,1673,8128,31,-58,18
0.251332,-10,1681,8127,31,-90,-39
0.251472,-46,1703,8172,69,-71,-13
0.251611,43,1693,8105,6,-45,-20
0.25175,26,1739,8121,69,-116,-20
0.25189,0,1694,8142,25,-71,-1
0.252029,-29,1677,8116,44,-64,-13
0.252168,-40,1679,8140,75,-39,-32
0.252308,-4,1697,8086,12,-90,-26
0.252447,-37,1617,8112,37,-90,-7
0.252586,-22,1661,8112,63,-45,-45
0.252726,-26,1706,8105,19,-77,6
0.252865,42,1705,8078,37,-84,-1
0.253004,-58,1684,8132,63,-96,-51
0.253144,28,1662,8126,56,-39,-13
0.253283,-49,1677,8104,0,-84,-1
0.253422,-74,1649,8128,75,-64,-26
0.253561,-42,1645,8191,50,-77,-39
0.253701,-55,1696,8199,63,-96,-39
0.25384,5,1697,8160,-19,-7,31
0.253979,-21,1696,8166,63,-77,-20
0.254119,-4,1676,8153,50,-116,-39
0.254258,6,1696,8165,37,-58,-20
0.254402,12,1684,8114,37,-77,-32
0.254537,23,1687,8099,56,-71,-32
0.254676,-54,1702,8091,6,-33,6
0.254815,-2,1660,8141,63,-90,-39
0.254955,41,1710,8137,69,-45,-32
0.255094,7,1738,8073,0,-90,6
0.255233,-15,1674,8120,75,-64,-45
0.255373,28,1672,8145,25,-90,-7
0.255512,42,1677,8145,63,-52,-20
0.255651,-2,1665,8157,50,-90,-64
0.255791,8,1696,8118,50,-45,-1
0.25593,14,1689,8158,37,-109,-13
0.256071,20,1739,8160,31,-26,-26
0.256209,6,1661,8130,69,-109,-45
0.256348,2,1688,8069,0,-52,6
0.256488,-21,1730,8069,81,-71,-20
0.256626,-42,1712,8105,19,-52,-32
0.256766,-20,1686,8142,75,-109,-39
0.256905,-59,1704,8092,25,-52,-20
0.257046,-18,1698,8076,31,-84,-32
0.257184,10,1653,8105,44,-84,18
0.257323,44,1680,8180,31,-33,-45
0.257462,70,1712,8138,88,-109,-39
0.257602,17,1741,8146,6,-39,25
0.257741,-41,1711,8056,19,-52,-45
0.257882,4,1665,8081,63,-96,-20
0.25802,0,1689,8078,25,-64,-45
0.25816,-5,1718,8094,56,-64,31
0.258299,-18,1699,8141,12,-58,-39
0.258439,3,1735,8086,56,-84,-32
0.258578,-2,1655,8103,25,-39,-13
0.258716,-14,1667,8115,69,-116,-39
0.258857,19,1689,8078,0,-39,-1
0.258995,-1,1657,8071,69,-84,-13
0.259135,-20,1651,8107,44,-45,-32
0.259274,-6,1677,8128,75,-84,-51
0.259413,-26,1706,8086,31,-71,44
0.259552,14,1716,8061,37,-77,-64
0.259692,4,1721,8113,44,-64,-51
0.259831,-6,1667,8112,-13,-64,18
0.259971,-15,1643,8128,113,-103,-58
0.260111,-25,1729,8102,31,-58,-1
0.260251,-36,1616,8119,-13,-71,-26
0.260393,30,1716,8120,81,-64,12
0.260528,-30,1727,8063,31,-64,-76
0.260667,-30,1644,8068,50,-96,25
0.260807,1,1689,8075,19,-33,-20
0.260945,-35,1723,8121,69,-103,-39
0.261085,37,1668,8106,50,-52,-20
0.261224,-3,1679,8097,19,-64,-7
0.261363,-7,1713,8041,56,-71,-39
0.261503,25,1713,8044,44,-64,12
0.261642,51,1734,8084,31,-77,-51
0.261781,-4,1689,8051,75,-77,-7
0.261921,30,1694,8081,31,-84,-13
0.26206,33,1752,8084,37,-58,-7
0.262199,-2,1751,8090,75,-90,-20
0.262338,9,1734,8100,0,-71,-20
0.262478,49,1681,8091,75,-90,-39
0.262617,-1,1753,8023,37,-33,-7
0.262757,0,1673,8058,75,-122,-45
0.262896,13,1657,8053,25,-1,-13
0.263035,52,1692,8058,50,-109,-20
0.263175,31,1704,8074,19,-64,-1
0.263314,53,1701,8083,69,-103,-32
0.263455,48,1673,8125,6,-45,-45
0.263593,50,1712,8081,63,-58,18
0.263732,-16,1698,8097,56,-96,-39
0.263871,-19,1686,8089,37,-64,-1
0.264012,21,1686,8060,63,-58,-39
0.26415,48,1700,8102,19,-64,6
0.264289,-7,1720,8079,81,-96,-51
0.264428,-39,1662,8048,25,-26,31
0.264568,1,1732,8068,50,-122,-58
0.264708,-2,1719,8068,6,-26,-1
0.264846,8,1711,8114,75,-64,-45
0.264986,-12,1709,8094,19,-84,-20
0.265127,58,1717,8088,63,-58,6
0.265264,27,1787,8106,12,-52,-32
0.265404,-11,1724,8049,69,-109,-58
0.265545,-33,1702,8086,6,-20,12
0.265682,16,1713,8058,25,-103,-39
0.265825,22,1706,8057,69,-39,-20
0.265962,-15,1757,8070,50,-77,-20
0.2661,-5,1709,8084,0,-20,-7
0.266241,13,1722,8071,88,-122,-45
0.266379,87,1710,8088,19,-33,-32
0.266518,37,1725,8112,25,-45,37
0.26666,15,1684,8112,50,-122,-76
0.266798,18,1689,8124,69,-64,-20
0.266937,26,1684,8113,31,-71,25
0.267077,8,1681,8106,44,-77,-70
0.267216,18,1689,8102,50,-71,6
0.267357,-7,1671,8044,31,-58,-20
0.267495,16,1705,8075,31,-52,-32
0.267633,26,1657,8089,69,-103,-13
0.267774,27,1682,8094,19,-77,-20
0.267911,6,1730,8076,69,-64,-45
0.268051,-2,1753,8103,31,-64,25
0.26819,58,1713,8111,50,-96,-51
0.268331,10,1660,8036,63,-71,-7
0.268469,-12,1711,8014,6,-58,-45
0.268609,43,1679,8070,69,-84,25
0.268747,-4,1712,8091,25,-39,-70
0.268887,38,1629,8089,31,-77,-1
0.269031,25,1696,8082,94,-52,-26
0.269166,42,1687,8083,-19,-71,-7
0.269304,-10,1710,8099,113,-90,-39
0.269444,7,1697,8109,19,-39,-20
0.269584,-4,1647,8105,69,-109,-26
0.269723,23,1665,8095,31,-45,-39
0.269862,-31,1672,8070,50,-84,-1
0.270002,11,1704,8004,44,-58,-32
0.270141,54,1723,8029,63,-64,-26
0.27028,43,1640,8117,6,-64,-1
0.270419,16,1703,8071,75,-71,-45
0.270558,32,1667,8072,12,-58,-1
0.270698,13,1681,8050,56,-109,-45
0.270837,-11,1716,8015,63,-64,-39
0.270976,-31,1691,8098,25,-13,18
0.271116,-54,1667,8076,50,-109,-51
0.271255,-22,1675,8041,44,-71,-51
0.271399,19,1729,8081,19,-64,37
0.271535,8,1662,8049,69,-71,-83
0.271674,10,1736,8086,25,-71,18
0.271812,62,1706,8066,50,-58,-26
0.271952,33,1705,8076,31,-84,-7
0.272092,42,1657,8079,31,-52,-45
0.27223,15,1703,8056,56,-64,12
0.27237,19,1700,8042,44,-90,-58
0.272509,-41,1656,8058,50,-26,12
0.272649,-54,1679,8077,44,-90,-58
0.272788,23,1629,8136,25,-58,6
0.272927,-22,1686,8078,56,-58,-32
0.273066,-13,1689,8075,44,-96,-26
0.273207,-11,1640,8039,44,-84,-26
0.273345,-2,1669,8018,63,-71,-45
0.273484,-19,1680,8121,0,-64,31
0.273624,-13,1690,8091,63,-64,-13
0.273763,-36,1673,8058,37,-96,-76
0.273902,-32,1664,8019,56,-71,31
0.274042,-51,1688,8073,12,-71,-1
0.274181,-22,1643,8076,88,-84,-70
0.27432,40,1689,8065,37,-45,12
0.27446,-10,1697,8094,56,-128,-26
0.274599,-39,1658,8002,25,-26,-26
0.274738,-2,1698,8072,50,-96,-1
0.274879,-40,1682,8071,63,-52,-45
0.275017,35,1714,8050,6,-77,-20
0.275156,-6,1703,8055,69,-96,-26
0.275295,-34,1699,8083,31,-58,-20
0.275435,-10,1686,8073,63,-58,-32
0.275576,-26,1645,8055,12,-52,6
0.275713,2,1637,8063,69,-64,-39
0.275853,19,1653,8070,0,-84,-7
0.275993,44,1664,8076,81,-71,-26
0.276131,-15,1695,8035,50,-71,-32
0.276271,16,1674,8102,25,-58,-26
0.27641,-24,1620,8134,44,-77,12
0.276549,-58,1654,8114,50,-77,-58
0.276689,6,1656,8064,31,-71,18
0.276828,25,1697,8032,63,-96,-58
0.276967,-23,1666,8025,50,-39,-20
0.277106,-4,1664,8116,19,-71,12
0.277246,-32,1684,8097,75,-103,-51
0.277385,-24,1693,8074,44,-64,-26
0.277525,4,1702,8130,12,-45,12
0.277664,-21,1690,8076,37,-58,-26
0.277803,0,1714,8081,75,-96,-39
0.277943,-80,1628,8067,50,-71,-26
0.278082,-60,1658,8085,19,-58,6
0.278221,-45,1655,8080,31,-84,-7
0.278361,-41,1687,8104,75,-96,-76
0.2785,42,1716,8096,25,-64,31
0.278639,-29,1693,8049,37,-84,-20
0.278778,-2,1712,8030,75,-77,-39
0.278918,8,1718,8109,37,-71,-26
0.279057,-8,1650,8069,37,-84,-32
0.279196,-21,1661,8072,31,-64,6
0.279336,16,1720,8086,56,-52,-45
0.279475,26,1685,8065,69,-103,-13
0.279615,4,1664,8090,37,-52,-7
0.279754,17,1670,8069,63,-90,-51
0.279893,14,1707,8054,31,-71,6
0.280032,0,1683,8109,25,-64,-32
0.280171,26,1714,8053,56,-71,-39
0.280311,29,1666,8075,37,-71,-1
0.28045,-47,1682,8137,44,-71,-39
0.28059,60,1690,8092,25,-64,-1
0.280729,62,1678,8055,69,-84,-20
0.280868,-22,1690,8091,37,-58,-51
0.281009,55,1668,8013,31,-103,-1
0.281148,-4,1696,8026,75,-58,-51
0.281286,-40,1685,8064,12,-64,6
0.281432,5,1690,8122,75,-64,-39
0.281566,-31,1722,8127,-13,-77,-7
0.281704,-17,1653,8119,107,-39,-32
0.281843,-9,1634,8104,-13,-116,-32
0.281983,32,1679,8062,75,-20,-7
0.282122,-4,1677,8073,25,-90,-26
0.282262,26,1666,8087,50,-71,-32
0.282401,-2,1720,8086,44,-77,-45
0.28254,-41,1656,8094,6,-45,18
0.282679,-13,1728,8099,75,-77,-45
0.282819,30,1699,8022,12,-84,-7
0.282958,64,1706,8065,81,-71,-32
0.283097,30,1688,8105,0,-90,-13
0.283239,-14,1682,8083,88,-39,-7
0.283376,46,1679,8064,19,-58,-20
0.283515,42,1617,8090,88,-135,-20
0.283656,-13,1712,8035,12,-52,6
0.283794,-17,1704,8070,25,-64,-39
0.283933,-3,1725,8067,100,-77,-20
0.284073,41,1695,8055,6,-33,18
0.284213,42,1707,8131,69,-116,-58
0.284351,21,1733,8114,19,-52,-1
0.284491,-5,1701,8119,69,-71,-64
0.284631,36,1671,8110,31,-45,18
0.284769,31,1650,8103,6,-77,-32
0.284908,29,1710,8083,88,-64,-13
0.285048,13,1708,8077,31,-77,-7
0.285187,-20,1716,8041,63,-71,-26
0.285327,1,1635,8065,37,-71,-20
0.285466,-26,1650,8071,31,-84,-13
0.285606,20,1648,8036,69,-39,-32
0.285745,-21,1667,8078,25,-96,-7
0.285884,-13,1693,8119,69,-77,-39
0.286023,0,1683,8066,19,-52,-13
0.286162,-43,1699,8105,44,-90,-1
0.286302,-26,1634,8111,56,-7,-70
0.286441,4,1722,8088,37,-128,25
0.28658,30,1698,8084,37,-64,-39
0.28672,19,1696,8092,37,-64,-26
0.286859,40,1666,8072,31,-77,-7
0.286998,-43,1660,8053,50,-39,-45
0.287137,-18,1665,8089,44,-90,-1
0.287277,20,1724,8062,75,-90,-20
0.287416,16,1693,8090,-25,-52,-26
0.287556,-10,1658,8068,94,-77,-20
0.287695,6,1678,8054,56,-77,-45
0.287834,19,1655,8071,0,-45,6
0.287973,-43,1680,8134,75,-96,-51
0.288113,-25,1671,8104,31,-64,18
0.288252,3,1672,8126,56,-58,-58
0.288392,0,1635,8116,50,-109,-39
0.288531,-31,1680,8092,69,-52,50
0.28867,3,1673,8149,19,-58,-76
0.288809,49,1670,8117,69,-103,-32
0.288949,27,1673,8113,6,-26,37
0.289089,85,1729,8062,56,-96,-89
0.289227,-16,1664,8154,50,-58,31
0.289367,-2,1688,8110,63,-84,-76
0.289506,-14,1688,8007,31,-45,25
0.289645,-7,1702,8063,31,-96,-70
0.289785,-10,1676,8112,69,-64,12
0.289924,-5,1658,8061,63,-90,-58
0.290063,6,1611,8055,6,-33,-20
0.290202,-30,1694,8066,69,-71,-1
0.290343,-15,1665,8105,37,-77,-13
0.290481,19,1705,8095,56,-77,-32
0.29062,-16,1732,8115,31,-90,-39
0.29076,-30,1726,8123,44,-77,-7
0.290899,26,1637,8122,19,-33,-26
0.291039,11,1705,8067,63,-103,-1
0.291178,-38,1731,8077,50,-84,-58
0.291317,13,1700,8087,12,-64,18
0.291457,-10,1630,8088,63,-77,-51
0.291596,40,1703,8112,37,-84,-13
0.291735,-8,1669,8087,44,-71,-1
0.291874,4,1714,8108,37,-33,-32
0.292014,-25,1679,8092,50,-103,-20
0.292155,15,1706,8096,50,-33,-32
0.292292,-8,1724,8075,6,-58,12
0.292432,-26,1664,8096,56,-96,-70
0.292571,-30,1659,8096,44,-58,12
0.292711,-13,1677,8119,25,-71,-32
0.292851,-14,1648,8097,50,-58,-32
0.292989,-30,1634,8082,63,-71,-39
0.293128,-34,1691,8123,0,-58,12
0.293268,8,1669,8085,94,-84,-70
0.293407,-17,1684,8031,12,-39,6
0.293546,-1,1681,8086,75,-84,-13
0.293686,18,1674,8064,12,-71,-13
0.293825,11,1684,8088,81,-84,-58
0.293964,0,1695,8032,56,-71,6
0.294104,0,1729,8060,31,-33,-13
0.294243,-57,1676,8103,31,-116,-51
0.294382,-17,1692,8102,56,-64,-20
0.294522,30,1679,8061,25,-45,25
0.294661,38,1683,8088,75,-122,-64
0.2948,-46,1686,8125,69,-20,6
0.294941,16,1706,8033,25,-77,-39
0.295079,-2,1724,8029,37,-77,-7
0.295218,-22,1692,8087,19,-33,-45
0.295358,-20,1691,8068,88,-96,6
0.295497,-10,1692,8098,-19,-39,-20
0.295638,28,1687,8097,100,-84,-39
0.295776,-9,1680,8098,50,-64,-20
0.295917,-21,1722,8117,19,-58,-20
0.296054,-37,1676,8127,63,-90,-32
0.296193,7,1672,8126,25,-52,-1
0.296333,27,1699,8122,44,-39,-26
0.296472,13,1672,8065,37,-128,-45
0.296611,48,1717,8137,88,-33,-1
0.296751,83,1720,8137,-19,-77,-13
0.29689,-7,1709,8096,100,-96,-51
0.297029,24,1689,8109,0,-39,12
0.297169,-31,1691,8099,50,-103,-51
0.297308,-63,1655,8136,75,-84,-7
0.297447,16,1695,8126,12,-45,-1
0.297587,-9,1662,8108,37,-71,-7
0.297726,-74,1647,8158,50,-90,-58
0.297865,-22,1720,8072,6,-52,-13
0.298005,-41,1698,8096,75,-109,-26
0.298144,-13,1677,8081,25,-58,-26
0.298283,-3,1692,8059,50,-26,-13
0.298423,-28,1691,8048,44,-122,-39
0.298562,24,1723,8073,56,-52,-20
0.298701,-2,1663,8086,12,-103,-7
0.29884,0,1653,8068,31,-39,-26
0.29898,30,1739,8067,100,-77,-51
0.29912,14,1646,8068,0,-77,-7
0.299259,38,1650,8087,81,-96,-13
0.2994,-22,1719,8095,31,-26,-45
0.299537,-52,1719,8048,0,-96,-1
0.299677,17,1674,8113,63,-64,-13
0.299815,-26,1681,8112,37,-77,-26
0.299955,19,1671,8076,88,-90,-39
0.300094,-30,1652,8062,6,-64,6
0.300233,1,1674,8068,100,-71,-32
0.300373,24,1693,8045,6,-96,-45
0.300512,28,1662,8090,50,-45,50
0.300652,-18,1671,8053,50,-77,-83
0.300791,-23,1673,8055,0,-71,18
0.30093,4,1669,8064,88,-84,-39
0.30107,-9,1664,8092,50,-45,-1
0.301209,12,1681,8102,12,-103,-32
0.301348,3,1721,8134,63,-58,-20
0.301489,-15,1712,8107,31,-71,-26
0.301627,-1,1654,8092,88,-77,-13
0.301766,11,1666,8086,-25,-45,12
0.301905,-16,1681,8131,94,-90,-58
0.302045,-17,1686,8150,19,-52,6
0.302185,-9,1659,8080,81,-58,-26
0.302323,-27,1684,8085,12,-71,-7
0.302464,7,1678,8092,75,-103,-58
0.302602,-16,1684,8089,6,-64,25
0.302741,-18,1683,8114,50,-77,-45
0.302881,-2,1681,8117,6,-39,-26
0.30302,-32,1703,8102,100,-77,-1
0.303159,-11,1728,8152,0,-64,-13
0.303299,-14,1725,8096,56,-64,-26
0.303438,-52,1683,8125,31,-64,-13
0.303577,7,1699,8040,56,-71,-20
0.303716,-22,1690,8090,12,-77,-32
0.303856,48,1676,8032,63,-96,-45
0.303995,2,1699,8082,31,-64,6
0.304135,20,1682,8068,69,-84,-26
0.304274,-34,1703,8073,-7,-52,-32
0.304413,-13,1708,8121,88,-77,12
0.304553,-23,1728,8085,31,-64,-51
0.304692,-35,1738,8045,25,-71,18
0.304831,18,1663,8113,63,-64,-51
0.304971,-1,1702,8099,63,-71,-20
0.30511,11,1712,8056,-7,-71,-20
0.305249,-30,1650,8078,75,-52,-7
0.305389,-18,1676,8104,56,-58,-13
0.305528,7,1674,8112,56,-71,-58
0.305667,-30,1644,8134,12,-90,-1
0.305807,-64,1676,8135,63,-84,-32
0.305946,-32,1694,8069,44,-52,12
0.306085,2,1680,8063,44,-64,-39
0.306224,-18,1674,8080,44,-103,-1
0.306364,-75,1657,8075,37,-71,-70
0.306503,-30,1627,8050,56,-39,50
0.306642,-50,1591,8118,50,-109,-70
0.306782,5,1668,8133,63,-45,-7
0.306921,-15,1693,8112,56,-71,-45
0.30706,-9,1717,8099,-13,-64,-1
0.3072,7,1698,8083,94,-84,-20
0.307338,28,1731,8061,19,-90,-45
0.30748,8,1698,8041,50,-52,12
0.307618,-1,1669,8095,50,-90,-51
0.307757,-72,1664,8135,50,-39,-1
0.307896,-18,1662,8108,12,-77,-26
0.308038,-5,1674,8099,75,-77,-26
0.308175,40,1728,8025,19,-64,-26
0.308314,27,1633,8059,37,-58,-20
0.308454,19,1630,8060,56,-52,6
0.308593,37,1671,8117,31,-103,-26
0.308733,13,1706,8104,31,-20,-26
0.308871,-4,1712,8068,44,-103,12
0.309011,-7,1695,8030,81,-33,-20
0.30915,-17,1650,8101,12,-71,-58
0.30929,0,1654,8081,12,-45,25
0.309429,28,1693,8113,56,-96,-51
0.309568,9,1732,8107,56,-84,-7
0.309708,-5,1671,8110,37,-58,-20
0.309847,-19,1655,8109,56,-90,-20
0.309986,5,1722,8099,6,-64,-26
0.310125,11,1668,8090,81,-71,-20
0.310264,-58,1628,8071,44,-90,-32
0.310404,-23,1709,8105,50,-52,6
0.310543,-16,1632,8112,31,-103,-45
0.310683,26,1662,8066,31,-58,-7
0.310822,32,1650,8028,56,-58,-1
0.310961,25,1683,8054,63,-90,-26
0.311101,52,1708,8056,19,-77,-20
0.31124,9,1676,8100,56,-45,-7
0.31138,-3,1754,8077,56,-90,-13
0.31152,26,1740,8085,31,-64,-39
0.311659,-14,1745,8090,44,-39,6
0.311797,-24,1681,8129,12,-116,-64
0.311936,-26,1607,8114,63,-26,-13
0.312077,-9,1741,8080,44,-109,-20
0.312215,-10,1723,8066,0,-20,6
0.312355,10,1631,8067,94,-109,-70
0.312494,61,1690,8105,19,-33,37
0.312633,28,1705,8106,31,-96,-45
0.312772,-22,1726,8063,50,-45,-45
0.312914,-7,1718,8079,50,-77,-7
0.313051,27,1692,8070,37,-84,-1
0.31319,-7,1673,8070,44,-58,-58
0.31333,21,1664,8049,50,-103,-39
0.313469,11,1697,8080,31,-39,44
0.313608,31,1697,8126,63,-77,-58
0.313747,25,1711,8034,63,-90,-39
0.313887,-2,1666,8076,25,-52,12
0.314026,29,1733,7977,44,-45,-20
0.314166,10,1672,8056,50,-103,-45
0.314305,32,1733,8130,50,-45,12
0.314444,2,1758,8109,31,-96,-32
0.314584,15,1675,8088,69,-58,-45
0.314723,46,1734,8108,12,-116,-13
0.314862,2,1691,8139,44,-1,-1
0.315002,-21,1678,8033,50,-109,-39
0.315141,-18,1712,8055,25,-64,6
0.31528,31,1698,8118,63,-64,-51
0.31542,47,1714,8085,37,-90,-32
0.315559,46,1695,8101,31,-77,12
0.315698,20,1715,8084,25,-26,-39
0.315837,32,1688,8093,88,-103,-20
0.315977,25,1709,8064,25,-52,-32
0.316116,0,1738,8120,25,-52,-1
0.316255,2,1646,8084,63,-90,-32
0.316396,36,1660,8133,63,-64,-20
0.316534,48,1742,8131,31,-58,-45
0.316673,58,1716,8119,31,-84,12
0.316813,12,1764,8043,56,-77,-32
0.316952,73,1706,8098,50,-64,-1
0.317091,27,1692,8100,69,-84,-51
0.317231,55,1709,8149,12,-52,6
0.31737,40,1725,8081,81,-122,-32
0.317509,9,1705,8080,0,-13,-20
0.317649,8,1707,8070,81,-141,-51
0.317788,-5,1733,8064,25,-20,6
0.317927,27,1659,8048,75,-96,-64
0.318066,28,1689,8064,25,-58,31
0.318206,29,1728,8114,25,-77,-39
0.318345,-12,1735,8038,94,-84,-45
0.318484,38,1697,8031,6,-71,18
0.318624,46,1686,8100,37,-64,-39
0.318763,-37,1713,8138,56,-84,-51
0.318902,-4,1702,8088,25,-58,37
0.319043,16,1705,8087,75,-84,-58
0.319181,18,1679,8100,37,-77,6
0.31932,5,1653,8090,56,-64,-39
0.319461,-3,1701,8076,19,-84,-7
0.319599,21,1731,8041,56,-39,-45
0.319738,-14,1696,8069,75,-109,-7
0.319877,39,1726,8069,0,-39,-1
0.320017,-27,1707,8107,107,-122,-64
0.320156,-42,1679,8095,25,-52,-13
0.320295,-8,1709,8096,88,-64,-1
0.320435,36,1699,8094,-13,-64,-1
0.320574,25,1742,8054,88,-77,-58
0.320716,40,1738,8089,37,-52,6
0.320854,-24,1686,8097,25,-90,-58
0.320992,20,1685,8093,69,-58,-13
0.321132,24,1638,8070,0,-52,-20
0.321271,11,1708,8114,94,-122,-64
0.32141,12,1683,8078,6,-39,12
0.32155,4,1699,8094,50,-103,-26
0.321689,46,1628,8096,44,-26,-20
0.321828,-7,1669,8112,25,-58,-26
0.321967,-9,1692,8121,37,-77,18
0.322108,1,1686,8098,37,-84,-58
0.322246,-36,1704,8115,44,-64,-20
0.322385,-25,1691,8095,56,-45,6
0.322527,-24,1681,8123,37,-84,-7
0.322664,49,1643,8106,56,-96,-51
0.322803,0,1650,8067,37,-45,-26
0.322943,5,1682,8109,-7,-84,31
0.323082,28,1658,8096,75,-58,-64
0.323221,47,1673,8077,63,-84,-7
0.323361,-3,1676,8097,25,-58,-32
0.3235,-28,1677,8106,37,-109,-1
0.323639,-35,1687,8123,44,-58,-13
0.323779,-46,1683,8090,31,-77,-45
0.323918,-32,1668,8045,50,-64,-1
0.324057,0,1648,8092,63,-77,-13
0.324197,18,1688,8144,25,-64,-45
0.324336,36,1660,8124,19,-33,12
0.324475,32,1720,8105,94,-128,-70
0.324616,26,1717,8131,25,-58,-7
0.324754,5,1712,8084,25,-52,-26
0.324893,0,1691,8094,88,-84,-39
0.325033,-27,1718,8097,19,-58,18
0.325172,34,1638,8130,81,-71,-51
0.325311,48,1720,8082,6,-90,-7
0.325451,14,1675,8102,63,-77,-20
0.32559,23,1686,8142,56,-45,-70
0.325729,12,1693,8048,12,-52,44
0.325868,59,1690,8089,113,-128,-76
0.326008,22,1663,8090,12,-26,-1
0.326147,-39,1680,8124,44,-84,-51
0.326286,-45,1660,8070,50,-71,18
0.326426,4,1689,8148,50,-71,-26
0.326565,2,1662,8096,37,-96,-45
0.326705,-36,1662,8192,37,-33,18
0.326844,-22,1657,8077,88,-96,-58
0.326983,13,1657,8090,25,-58,6
0.327122,5,1684,8109,56,-77,-51
0.327262,15,1671,8119,19,-52,6
0.327401,48,1690,8102,81,-109,-32
0.32754,70,1745,8115,25,-39,-13
0.32768,-10,1691,8089,50,-103,-20
0.327819,-21,1681,8099,50,-39,-39
0.327958,6,1676,8124,12,-96,-1
0.328097,13,1722,8119,88,-71,-45
0.328237,79,1648,8115,-13,-71,12
0.328376,32,1649,8126,50,-58,-45
0.328516,-16,1702,8136,31,-103,-1
0.328655,-8,1647,8073,69,-77,-39
0.328795,20,1701,8094,19,-33,-13
0.328934,33,1650,8090,81,-116,-64
0.329073,19,1639,8094,25,-45,44
0.329212,3,1693,8101,44,-71,-51
0.329351,5,1684,8090,37,-71,-20
0.329491,67,1715,8073,37,-84,-20
0.329631,50,1701,8049,56,-64,-7
0.329769,38,1728,8070,63,-90,-51
0.329908,-10,1660,8080,37,-71,-1
0.330047,56,1661,8110,31,-64,-26
0.330187,7,1724,8105,69,-64,-26
0.330326,32,1693,8083,19,-71,-32
0.330466,31,1693,8052,63,-84,-1
0.330605,16,1656,8066,37,-33,-32
0.330746,-21,1675,8119,50,-109,-32
0.330884,-2,1718,8078,31,-26,25
0.331025,22,1727,8081,31,-96,-64
0.331164,33,1639,8141,44,-58,12
0.331303,7,1686,8119,44,-84,-32
0.331441,-19,1738,8123,25,-20,-39
0.33158,-58,1665,8104,31,-90,12
0.331721,10,1671,8119,100,-122,-70
0.331859,24,1697,8081,25,-33,18
0.331998,30,1686,8088,19,-71,-39
0.332138,41,1666,8112,94,-90,-45
0.332277,7,1689,8127,31,-58,-20
0.332416,-30,1668,8124,25,-52,31
0.332556,26,1694,8139,56,-64,-51
0.332695,12,1660,8132,88,-71,-39
0.332834,53,1700,8114,31,-90,-1
0.332974,31,1712,8052,19,-45,-26
0.333113,16,1661,8101,63,-116,-20
0.333252,10,1695,8080,44,-26,-20
0.333392,56,1703,8043,63,-109,-20
0.333531,31,1648,8095,25,-58,-20
0.33367,38,1675,8100,56,-84,-26
0.33381,16,1669,8069,25,-45,-32
0.333949,-6,1671,8099,69,-96,-26
0.334088,-5,1652,8109,25,-58,-1
0.334228,21,1650,8115,50,-77,-20
0.334367,60,1708,8080,19,-90,-39
0.334506,60,1690,8120,88,-71,-13
0.334645,9,1675,8092,-25,-45,-13
0.334789,-28,1642,8073,138,-135,-32
0.334924,28,1673,8080,-25,-20,-20
0.335063,-31,1691,8078,56,-103,-13
0.335203,-68,1687,8094,56,-45,-13
0.335342,16,1691,8093,25,-84,-45
0.335481,-27,1663,8070,6,-52,-7
0.335621,36,1650,8086,81,-103,-32
0.335761,40,1698,8070,56,-71,-20
0.335899,7,1717,8054,37,-64,-20
0.336039,20,1654,8076,31,-39,6
0.336178,14,1653,8040,31,-96,-32
0.336317,9,1655,8005,88,-64,-45
0.336457,-34,1631,8132,37,-64,31
0.336596,27,1680,8099,69,-58,-83
0.336735,18,1712,8068,-7,-90,18
0.336875,-34,1677,8051,81,-84,-32
0.337014,-54,1676,8096,44,-33,-32
0.337153,-29,1687,8093,50,-84,-39
0.337293,23,1714,8074,56,-77,18
0.337432,-24,1714,8051,12,-58,-39
0.337571,-72,1711,8041,63,-96,-13
0.337711,11,1721,8093,50,-58,-39
0.33785,-10,1632,8073,37,-84,-26
0.337989,-21,1665,8095,12,-58,-1
0.338128,40,1627,8091,75,-116,-76
0.338268,-18,1683,8060,31,-26,31
0.338407,-34,1663,8072,50,-103,-58
0.338546,-39,1618,8110,31,-77,-7
0.338686,8,1659,8062,75,-58,-39
0.338825,-9,1647,8088,19,-39,-7
0.338964,-29,1669,8084,50,-103,-26
0.339104,-1,1625,8080,63,-71,6
0.339243,3,1698,8095,12,-52,-39
0.339382,24,1658,8117,69,-109,-39
0.339523,42,1677,8064,37,-58,18
0.339661,-12,1697,8083,56,-96,-83
0.3398,42,1659,8106,63,-45,25
0.33994,2,1650,8082,0,-77,-51
0.340079,-56,1704,8119,75,-90,-39
0.340218,57,1697,8039,25,-64,12
0.340358,31,1640,8083,81,-77,12
0.3405,9,1649,8091,0,-45,-76
0.340636,-17,1698,8056,44,-122,-20
0.340776,6,1674,8084,63,-45,31
0.340915,38,1649,8134,37,-52,-45
0.341054,-28,1703,8075,-19,-64,-13
0.341193,-27,1648,8048,113,-96,-51
0.341333,-6,1625,8091,31,-33,25
0.341472,51,1684,8056,69,-116,-64
0.341611,8,1706,8064,-7,-58,6
0.341751,1,1689,8060,63,-39,-13
0.34189,-78,1699,8078,56,-84,-7
0.342029,-22,1651,8089,63,-90,-26
0.342169,-44,1684,8068,37,-77,-45
0.342308,-20,1707,8044,31,-52,-13
0.342447,49,1696,8079,31,-71,6
0.342587,29,1696,8093,94,-96,-39
0.342726,1,1660,8104,25,-26,-26
0.342865,-39,1640,8095,63,-84,12
0.343005,-34,1625,8097,63,-52,-39
0.343144,-34,1684,8063,50,-109,-39
0.343283,23,1648,8096,12,-26,12
0.343423,-31,1635,8069,88,-109,-58
0.343562,-36,1648,8095,25,-45,-7
0.343701,41,1679,8107,69,-90,-39
0.343841,36,1671,8066,12,-45,-1
0.34398,66,1705,8032,69,-116,-39
0.344119,-13,1709,8038,50,-58,-26
0.344259,-25,1715,8059,56,-33,12
0.3444,-39,1671,8093,12,-103,-45
0.344537,4,1685,8039,69,-52,-20
0.344676,-48,1650,8082,6,-77,-7
0.344816,-32,1659,8064,75,-71,-32
0.344955,-18,1712,8063,81,-116,-26
0.345094,-21,1628,8068,37,-26,-32
0.345234,-44,1696,8042,44,-84,-20
0.345373,-51,1672,8053,25,-71,6
0.345512,-26,1616,8096,19,-52,-51
0.345652,-11,1674,8086,125,-90,6
0.345791,-23,1716,8091,-19,-64,-58
0.34593,-41,1690,8099,75,-39,18
0.34607,33,1697,8070,56,-109,-83
0.346209,-1,1707,8061,25,-58,12
0.346348,-19,1654,8106,37,-45,6
0.346488,5,1711,8080,37,-96,-45
0.346627,16,1688,8071,56,-52,-26
0.346766,-6,1664,8060,81,-71,-20
0.346906,-5,1670,8027,25,-71,-20
0.347045,-15,1708,8014,25,-77,-20
0.347184,36,1671,8077,63,-90,-13
0.347324,-38,1674,8087,50,-64,-26
0.347463,40,1746,8073,19,-58,-26
0.347602,1,1644,8074,37,-103,-7
0.347742,14,1698,8042,75,-71,-45
0.347881,5,1681,8036,31,-90,6
0.34802,8,1675,8050,25,-77,-39
0.348159,4,1665,8056,50,-58,6
0.348299,6,1658,8130,44,-77,-58
0.348438,6,1651,8042,56,-84,6
0.348577,-10,1646,8118,19,-71,-51
0.348717,30,1694,8060,69,-84,-13
0.348856,16,1654,8102,44,-39,-13
0.348996,19,1695,8110,44,-90,-13
0.349135,26,1690,8127,25,-96,-64
0.349274,23,1706,8067,50,-26,31
0.349413,-4,1693,8048,63,-90,-76
0.349553,-28,1654,8067,69,-52,-7
0.349692,24,1711,8068,12,-84,-7
0.349831,25,1740,8135,44,-45,-1
0.349971,-4,1675,8095,69,-109,-89
0.35011,15,1683,8092,37,-45,31
0.350249,22,1699,8065,50,-90,-51
0.350389,0,1614,8064,37,-45,-13
0.350528,8,1697,8084,31,-90,-26
0.350667,25,1682,8054,31,-77,-26
0.350807,2,1704,8070,56,-45,-32
0.350946,-27,1676,8083,56,-64,6
0.351085,-12,1636,8047,25,-103,-39
0.351224,58,1696,8068,56,-64,-20
0.351364,6,1710,8066,44,-58,25
0.351503,27,1684,8127,69,-96,-58
0.351642,27,1689,8084,25,-64,-32
0.351782,-19,1732,8094,25,-52,6
0.351921,23,1708,8019,69,-77,-1
0.35206,-14,1665,8044,19,-52,-45
0.3522,34,1659,8059,50,-103,6
0.352339,-11,1672,8059,63,-45,-20
0.352478,48,1696,8030,31,-77,-20
0.352618,-6,1679,8041,50,-77,-32
0.352757,-2,1695,8049,50,-64,-20
0.352896,13,1732,8066,63,-84,-26
0.353036,6,1710,8034,-7,-52,12
0.353175,45,1722,8070,63,-90,-45
0.353314,49,1690,8087,19,-39,-20
0.353454,22,1691,8124,63,-103,-26
0.353593,-17,1719,8078,-7,-64,-26
0.353733,6,1728,8125,63,-77,-39
0.353872,38,1690,8089,63,-20,25
0.354011,4,1679,8140,31,-103,-45
0.35415,-2,1668,8092,69,-84,-20
0.35429,34,1700,8051,12,-26,6
0.354429,-14,1722,8051,37,-103,-58
0.354568,-24,1665,8063,44,-71,12
0.354709,10,1686,8092,50,-71,-20
0.354848,15,1753,8070,75,-71,-70
0.354986,69,1673,8077,-7,-64,37
0.355125,44,1636,8100,69,-96,-32
0.355266,6,1671,8048,0,-33,-7
0.355404,78,1661,8090,69,-96,-58
0.355543,47,1677,8092,-7,-33,37
0.355682,18,1699,8071,75,-90,-64
0.355822,-27,1683,8061,31,-33,25
0.355962,3,1726,8057,44,-103,-64
0.356101,17,1702,8096,6,-39,25
0.35624,-54,1680,8094,100,-84,-89
0.356379,-14,1687,8075,12,-39,37
0.356519,-6,1702,8042,69,-103,-58
0.356658,43,1685,8102,25,-39,12
0.356799,25,1714,8113,50,-77,-26
0.356937,38,1712,8085,25,-71,-32
0.357077,58,1672,8127,69,-84,-32
0.357215,6,1724,8084,31,-45,12
0.357356,-49,1719,8080,44,-77,-58
0.357494,-15,1674,8031,25,-90,-20
0.357636,32,1666,8063,75,-71,-7
0.357773,-5,1653,8085,12,-45,-32
0.357912,18,1697,8077,75,-96,-32
0.358053,-8,1654,8156,25,-52,-7
0.35819,3,1718,8119,25,-52,-20
0.35833,13,1670,8019,63,-103,-45
0.358469,30,1685,8080,50,-45,-13
0.358609,11,1678,8133,37,-77,12
0.358748,-10,1723,8107,31,-64,-39
0.358887,11,1672,8107,37,-52,-51
0.359026,-16,1672,8145,56,-71,-13
0.359166,-35,1694,8069,44,-64,-26
0.359308,-5,1658,8052,44,-64,-7
0.359445,28,1696,8038,31,-58,-7
0.359584,6,1686,8083,69,-109,-76
0.359723,32,1707,8115,19,-39,18
0.359862,1,1670,8160,19,-58,-20
0.360002,-14,1700,8132,107,-109,-45
0.360141,35,1690,8058,-7,-33,25
0.36028,7,1671,8108,12,-64,-51
0.360419,76,1704,8118,100,-103,-32
0.360559,73,1725,8080,25,-45,25
0.360698,22,1666,8125,56,-90,-83
0.360837,-13,1652,8129,19,-58,25
0.360977,64,1709,8110,81,-77,-64
0.361116,3,1695,8112,12,-64,31
0.361255,-6,1710,8040,37,-71,-64
0.361395,39,1656,8060,69,-64,-13
0.361534,-29,1695,8100,19,-77,-26
0.361673,-18,1702,8071,25,-71,-7
0.361813,25,1712,8075,50,-71,-51
0.361952,20,1727,8126,94,-84,-32
0.362091,20,1716,8137,-19,-26,-1
0.362232,21,1669,8080,63,-128,-1
0.36237,-43,1687,8120,69,-39,-64
0.362509,8,1673,8053,-13,-64,6
0.362649,51,1707,8096,100,-84,-13
0.362789,-11,1680,8079,-13,-52,-13
0.362928,-71,1644,8109,113,-84,-51
0.363067,-8,1696,8050,19,-71,-13
0.363206,89,1735,8081,25,-96,-7
0.363345,54,1664,8048,31,-45,-39
0.363485,5,1657,8050,94,-90,-7
0.363625,-35,1682,8113,-13,-64,-7
0.363763,-3,1708,8110,88,-64,-83
0.363903,-5,1653,8088,6,-58,25
0.364042,7,1663,8106,31,-52,-26
0.364184,-26,1657,8094,56,-77,-39
0.36432,26,1685,8041,69,-58,25
0.36446,67,1717,8082,37,-64,-39
0.3646,28,1687,8087,12,-64,-45
0.364739,-15,1683,8091,69,-58,31
0.364879,13,1710,8109,44,-58,-45
0.365017,35,1673,8115,44,-58,-45
0.365156,5,1720,8128,37,-58,25
0.365297,13,1679,8116,44,-77,-45
0.365435,35,1637,8067,44,-90,-45
0.365574,-40,1657,8091,56,-77,-26
0.365715,8,1712,8112,31,-58,12
0.365853,-21,1722,8117,56,-52,-26
0.365993,3,1670,8157,6,-84,-32
0.366132,44,1700,8104,69,-45,-20
0.366271,-11,1644,8068,50,-64,-26
0.36641,28,1642,8091,25,-109,-20
0.366553,0,1675,8150,12,-33,-1
0.366689,10,1666,8159,56,-103,-51
0.366828,8,1715,8100,69,-71,-1
0.366967,24,1702,8050,19,-52,6
0.367107,19,1680,8127,63,-84,-51
0.367246,16,1664,8121,31,-77,-13
0.367386,28,1679,8096,37,-64,-26
0.367525,14,1668,8076,50,-45,-7
0.367664,22,1662,8132,56,-103,-51
0.367804,9,1674,8115,25,-52,18
0.367944,-3,1674,8122,44,-90,-39
0.368082,76,1728,8143,31,-52,-1
0.368221,17,1687,8075,37,-90,-51
0.368361,-8,1669,8136,63,-71,-32
0.3685,14,1685,8050,6,-71,18
0.368639,21,1732,8115,44,-71,-32
0.368779,5,1687,8084,81,-84,-45
0.368918,-12,1725,8120,0,-52,-1
0.369057,-30,1699,8092,63,-71,-26
0.369197,-7,1694,8106,50,-84,-7
0.369336,45,1730,8062,56,-64,-45
0.369475,83,1714,8115,0,-52,6
0.369615,31,1715,8083,63,-96,-26
0.369754,13,1695,8095,81,-64,-32
0.369893,12,1722,8074,37,-84,-26
0.370033,42,1682,8041,25,-45,-7
0.370172,33,1684,8045,75,-90,-51
0.370311,23,1687,8098,44,-77,6
0.370451,49,1694,8028,19,-71,-1
0.37059,56,1736,8073,113,-58,-45
0.370729,8,1716,8144,-7,-71,-7
0.370869,-2,1701,8139,63,-90,-32
0.371008,-46,1745,8102,31,-64,-32
0.371147,-31,1690,8090,75,-90,-7
0.371287,-35,1702,8110,19,-64,-1
0.371426,-43,1658,8132,56,-84,-32
0.371565,8,1687,8085,12,-52,-20
0.371705,25,1685,8082,88,-122,-39
0.371844,10,1660,8098,44,-45,-20
0.371983,24,1666,8059,6,-45,-13
0.372122,30,1657,8101,69,-103,-20
0.372262,-12,1681,8092,19,-58,-20
0.372401,-11,1721,8118,63,-64,-20
0.37254,1,1714,8108,37,-64,-26
0.37268,27,1737,8108,69,-103,-13
0.372819,2,1704,8104,-13,-20,-13
0.372958,-18,1693,8094,81,-109,-32
0.373098,-52,1684,8090,44,-45,-20
0.373237,-10,1643,8081,44,-90,-26
0.373376,59,1705,8078,0,-45,25
0.373516,-59,1696,8109,100,-96,-83
0.373655,39,1712,8135,12,-64,6
0.373794,17,1702,8149,69,-90,-26
0.373934,-39,1661,8115,37,-33,12
0.374073,-32,1701,8063,63,-84,-64
0.374212,-51,1685,8090,12,-84,6
0.374352,-17,1702,8118,44,-45,-32
0.374491,-8,1695,8121,63,-103,-1
0.37463,6,1720,8095,0,-39,-1
0.37477,4,1703,8124,113,-109,-64
0.37491,49,1676,8146,-25,-39,12
0.375049,36,1706,8096,63,-52,-39
0.37519,22,1658,8136,50,-103,-26
0.375327,21,1657,8112,19,-64,-13
0.375466,19,1702,8073,37,-45,-1
0.375605,32,1694,8093,37,-90,-58
0.375745,-16,1683,8095,94,-90,-26
0.375884,26,1629,8108,-7,6,18
0.376023,22,1648,8107,88,-141,-51
0.376163,9,1666,8105,-25,-20,-32
0.376302,-10,1679,8133,94,-84,-1
0.376441,-52,1684,8113,50,-71,-20
0.376581,32,1708,8086,0,-71,-20
0.37672,27,1682,8127,69,-84,-20
0.37686,-21,1677,8113,19,-39,-13
0.376999,1,1694,8055,100,-103,-32
0.377138,66,1774,8063,0,-84,-32
0.377277,-1,1686,8088,44,-45,12
0.377419,-7,1668,8110,37,-77,-51
0.377556,-13,1669,8112,75,-109,-20
0.377695,-11,1690,8099,6,-20,-1
0.377834,-57,1692,8105,63,-90,-32
0.377974,-36,1640,8155,69,-122,-13
0.378113,-3,1685,8112,31,-33,-13
0.378252,-12,1638,8139,56,-103,-64
0.378392,11,1708,8097,50,-52,18
0.378531,22,1763,8092,6,-33,-13
0.37867,-10,1662,8106,75,-116,-32
0.378811,-22,1666,8108,69,-45,-13
0.378949,17,1664,8139,12,-103,-32
0.37909,-21,1680,8092,44,-39,-32
0.379229,25,1730,8048,63,-109,-26
0.379368,14,1735,8142,37,-52,18
0.379508,-10,1664,8104,31,-103,-89
0.379646,22,1654,8128,50,-1,25
0.379785,20,1693,8080,31,-90,-7
0.379926,3,1651,8117,69,-77,-39
0.380064,3,1670,8125,50,-77,-45
0.380203,5,1647,8104,44,-77,-1
0.380342,-49,1681,8097,63,-64,-7
0.380482,-24,1683,8101,6,-45,-13
0.380621,11,1704,8098,75,-141,-70
0.380762,-46,1649,8124,12,-13,6
0.3809,-20,1636,8095,81,-96,-26
0.381041,-16,1638,8117,19,-26,-20
0.381178,-3,1660,8084,31,-58,-26
0.381317,23,1685,8160,81,-109,-45
0.381457,-12,1722,8076,-19,-20,6
0.381596,-28,1684,8081,88,-90,-32
0.381736,16,1647,8083,37,-58,-32
0.381875,-25,1713,8087,31,-77,-20
0.382016,1,1716,8023,37,-52,-13
0.382153,18,1711,8085,56,-77,-13
0.382293,-38,1752,8069,56,-58,-32
0.382434,-25,1701,8069,37,-109,-39
0.382571,37,1689,8142,0,-39,25
0.382711,-11,1688,8179,81,-96,-64
0.38285,-58,1662,8146,19,-58,-1
0.38299,12,1636,8091,25,-64,-7
0.383129,19,1678,8071,100,-103,-26
0.383268,21,1635,8087,0,-45,-26
0.383408,-7,1682,8024,63,-84,-32
0.383547,4,1696,8036,37,-84,6
0.383686,37,1674,8064,37,-64,-70
0.383825,7,1659,8105,50,-58,-7
0.383965,-20,1625,8041,25,-77,-7
0.384104,33,1641,8078,119,-109,-45
0.384243,62,1709,8094,0,-26,12
0.384383,38,1679,8095,81,-116,-58
0.384522,-40,1685,8078,63,-45,-1
0.384661,-20,1696,8100,6,-52,-20
0.384801,7,1717,8089,31,-77,-20
0.384939,10,1670,8090,88,-84,-13
0.385079,5,1682,8080,25,-77,-45
0.385219,-42,1713,8122,19,-45,-20
0.385358,-36,1647,8096,44,-58,6
0.385497,-9,1707,8097,69,-96,-58
0.385637,11,1724,8117,25,-84,-1
0.385776,-37,1722,8093,44,-71,-32
0.385915,-28,1680,8058,56,-52,-7
0.386055,-13,1666,8084,44,-58,-7
0.386194,-17,1675,8104,31,-84,-51
0.386334,-25,1686,8114,69,-103,-26
0.386473,-6,1691,8077,25,-45,25
0.386612,15,1679,8078,63,-52,-64
0.386751,-6,1717,8090,31,-77,-13
0.38689,16,1697,8043,63,-103,-7
0.387029,-17,1752,8085,44,-45,-51
0.387169,-21,1704,8095,6,-84,-13
0.387308,-36,1680,8149,69,-58,-20
0.387447,-2,1661,8075,37,-90,-13
0.387587,-18,1684,8004,50,-71,-51
0.387726,10,1686,8089,44,-64,-13
0.387866,44,1689,8124,56,-84,-7
0.388005,-12,1682,8080,6,-52,12
0.388145,4,1699,8085,69,-96,-64
0.388284,28,1682,8015,37,-84,-1
0.388426,-42,1712,8060,75,-58,-13
0.388564,-18,1692,8114,25,-77,-7
0.388701,-5,1713,8090,50,-39,-20
0.388841,47,1692,8061,25,-64,-13
0.38898,83,1672,8077,81,-109,-45
0.389122,-31,1599,8087,6,-20,25
0.389259,19,1674,8052,19,-90,-13
0.389401,48,1678,8035,94,-84,-26
0.389538,-42,1663,8064,31,-71,-64
0.389678,-21,1739,8098,-19,-20,31
0.389816,16,1719,8132,75,-103,-32
0.389956,-8,1679,8094,37,-58,-20
0.390095,16,1702,8058,44,-84,-45
0.390234,-41,1685,8071,25,-39,-20
0.390373,2,1687,8086,63,-116,-7
0.390513,-54,1629,8057,6,-45,-26
0.390654,42,1675,8130,88,-96,-13
0.390792,-1,1665,8067,12,-26,-20
0.390931,17,1689,8083,94,-103,-1
0.391071,28,1699,8066,25,-33,-39
0.391209,-29,1754,8109,12,-90,-7
0.391349,24,1742,8123,69,-84,-20
0.391488,6,1704,8119,50,-39,-20
0.391627,10,1705,8142,25,-77,-58
0.391767,-42,1703,8147,25,-45,6
0.391906,9,1722,8081,56,-96,-7
0.392045,63,1692,8061,69,-45,-51
0.392185,55,1667,8104,-13,-45,25
0.392324,-13,1690,8078,69,-116,-64
0.392463,17,1709,8070,50,-58,-45
0.392603,-26,1670,8071,-7,-71,37
0.392742,42,1706,8043,44,-71,-45
0.392881,37,1664,8122,50,-103,-26
0.393021,2,1644,8065,69,-39,-39
0.39316,57,1729,8012,12,-90,-1
0.393299,-13,1777,8040,50,-45,-32
0.393439,-29,1719,8050,44,-71,-13
0.393578,-23,1702,8087,-7,-71,6
0.393717,-29,1668,8067,107,-52,-20
0.393857,-10,1675,8087,25,-109,-39
0.393996,4,1680,8076,19,-52,-1
0.394135,16,1716,8067,63,-84,-45
0.394274,23,1682,8042,44,-64,12
0.394414,21,1670,8026,25,-64,-39
0.394553,-24,1665,8033,69,-77,-20
0.394692,-26,1675,8056,44,-71,-51
0.394832,-5,1693,8060,19,-45,50
0.394971,44,1680,8092,63,-71,-108
0.39511,71,1679,8026,37,-90,37
0.39525,59,1712,8046,50,-71,-64
0.395389,-28,1736,8074,50,-71,6
0.395528,-20,1702,8085,50,-90,-39
0.395667,3,1683,8126,12,-39,-7
0.395809,-46,1670,8071,19,-52,-20
0.395947,0,1691,8067,88,-128,-39
0.396086,28,1685,8001,31,-7,6
0.396225,-21,1673,8093,88,-141,-89
0.396365,55,1697,8071,6,-26,69
0.396503,66,1662,8017,81,-109,-83
0.396643,8,1691,8023,-13,-52,12
0.396782,29,1689,8103,56,-52,-13
0.396921,18,1681,8090,63,-122,-70
0.39706,-5,1695,8072,6,-26,18
0.3972,11,1687,8064,81,-109,-58
0.397339,46,1677,8116,0,-45,18
0.397478,29,1668,8129,37,-77,-39
0.397619,7,1630,8107,94,-109,-26
0.397759,42,1702,8048,0,-64,-26
0.397898,-8,1645,8058,44,-26,-39
0.398037,-2,1666,8084,75,-96,31
0.398175,43,1706,8082,37,-96,-51
0.398314,51,1673,8038,37,-39,-26
0.398454,-15,1721,8055,37,-84,-39
0.398593,16,1671,8056,37,-39,25
0.398734,27,1675,8060,81,-96,-89
0.398872,15,1656,8102,6,-58,56
0.399011,-20,1720,8038,63,-64,-51
0.399152,-23,1663,8062,56,-45,-32
0.399292,-23,1631,8099,50,-103,12
0.399429,-30,1706,8070,31,-58,-51
0.399568,32,1719,8074,37,-71,31
0.399708,58,1656,8077,44,-33,-70
0.399847,17,1665,8041,50,-90,37
0.399987,28,1670,8072,50,-64,-64
0.400126,27,1605,8069,50,-77,6
0.400265,22,1635,8058,12,-45,-45
0.400404,-7,1674,8086,56,-96,-1
0.400544,11,1666,8114,31,-45,-20
0.400683,-7,1680,8089,75,-116,-32
0.400822,60,1677,8062,44,-64,-20
0.400962,-14,1651,8091,44,-58,-20
0.401101,-19,1700,8102,37,-90,-20
0.40124,36,1689,8074,69,-71,-45
0.40138,47,1654,8082,31,-71,-1
0.401519,-25,1677,8106,31,-77,-45
0.401658,-41,1660,8075,50,-39,-1
0.401798,-3,1670,8077,37,-96,-7
0.401937,-2,1666,8072,31,-84,-39
0.402076,41,1726,8118,56,-45,-20
0.402216,56,1687,8096,44,-90,-20
0.402355,24,1699,8106,25,-20,-39
0.402494,-15,1702,8100,56,-84,-20
0.402634,-41,1736,8078,44,-58,6
0.402773,-5,1648,8120,44,-96,-70
0.402912,2,1700,8115,56,-64,12
0.403052,17,1666,8038,0,-77,-20
0.403191,-18,1677,8032,44,-64,-13
0.40333,2,1650,8066,44,-77,-26
0.40347,-11,1687,8097,44,-109,-32
0.403609,39,1678,8102,25,-39,-7
0.403748,28,1691,8075,50,-90,6
0.403888,44,1670,8069,63,-77,-76
0.404027,3,1721,8094,12,-58,31
0.404166,-11,1701,8056,69,-52,-39
0.404305,26,1676,8090,44,-103,-26
0.404445,-5,1663,8106,50,-45,-7
0.404585,-45,1684,8112,31,-90,-32
0.404723,16,1658,8093,50,-90,-7
0.404868,-9,1732,8039,56,-26,-39
0.405004,-38,1715,8072,44,-109,-20
0.405141,12,1719,8091,37,-33,-20
0.40528,3,1705,8069,56,-84,-7
0.40542,12,1709,8114,25,-45,-26
0.405561,-14,1659,8137,37,-90,-45
0.405698,7,1684,8104,37,-64,6
0.405838,-4,1684,8105,69,-84,-51
0.405978,42,1612,8057,-7,-52,-13
0.406116,40,1706,8099,63,-26,-26
0.406256,-3,1674,8085,31,-84,-7
0.406395,-9,1675,8060,19,-71,-26
0.406534,41,1696,8096,56,-90,-26
0.406674,24,1598,8113,50,-77,-39
0.406813,-2,1669,8106,-7,-33,37
0.406952,21,1666,8130,69,-96,-39
0.407091,3,1705,8088,0,-45,-1
0.407231,-10,1674,8136,88,-103,-51
0.40737,16,1680,8139,25,-77,-26
0.407509,30,1699,8081,31,-52,12
0.407651,1,1676,8097,63,-52,-32
0.407788,48,1760,8094,25,-103,-51
0.407928,-10,1724,8118,56,-52,-13
0.408067,68,1684,8107,19,-71,-39
0.408208,28,1631,8118,63,-64,12
0.408346,5,1689,8124,19,-71,-45
0.408486,-12,1699,8090,56,-77,-20
0.408626,68,1691,8107,63,-58,-13
0.408765,11,1669,8134,25,-58,-20
0.408903,18,1687,8082,63,-64,-20
0.409042,37,1735,8106,63,-135,-39
0.409181,-47,1669,8119,6,-1,18
0.409321,-94,1658,8121,100,-122,-20
0.409461,-6,1687,8035,-7,-58,-51
0.409599,30,1712,8091,100,-77,-39
0.409739,-22,1650,8102,-19,-58,12
0.409878,-55,1664,8048,88,-77,-32
0.410019,-83,1724,8066,19,-71,-26
0.410157,-42,1711,8108,56,-45,-39
0.410296,-1,1684,8156,-7,-90,6
0.410435,2,1638,8104,81,-77,-32
0.410575,52,1678,8072,25,-39,-13
0.410714,18,1692,8062,44,-109,-45
0.410854,-40,1718,8082,69,-90,-20
0.410992,-10,1710,8090,6,-45,18
0.411132,16,1690,8116,56,-103,-39
0.411271,-20,1648,8120,37,-45,-7
0.41141,-8,1682,8115,56,-90,-32
0.41155,16,1672,8104,31,-103,-39
0.411689,32,1650,8068,37,-45,-13
0.41183,40,1708,8058,50,-39,-7
0.411968,33,1656,8106,37,-52,-13
0.412107,-5,1662,8075,69,-103,-58
0.412247,55,1696,8043,37,-45,6
0.412386,-6,1633,8115,31,-71,-26
0.412527,-3,1691,8098,31,-64,-13
0.412664,15,1664,8059,63,-90,-39
0.412805,44,1706,8132,75,-58,-7
0.412943,-16,1681,8151,31,-71,-32
0.413082,4,1664,8147,19,-64,-26
0.413222,6,1689,8158,56,-52,-20
0.413363,36,1678,8135,50,-90,-1
0.4135,-9,1648,8083,75,-77,-32
0.41364,54,1720,8071,6,-52,-58
0.413779,0,1694,8121,69,-71,50
0.413918,9,1683,8130,56,-96,-45
0.414058,20,1709,8065,44,-58,-45
0.414197,-16,1656,8153,50,-71,-1
0.414336,-12,1676,8141,44,-39,-26
0.414476,-5,1691,8125,44,-96,-32
0.414615,25,1703,8109,44,-71,-51
0.414754,41,1675,8103,50,-58,50
0.414894,32,1692,8074,75,-109,-76
0.415033,-11,1645,8087,12,-26,31
0.415172,-12,1676,8101,-7,-90,-39
0.415312,46,1699,8073,81,-90,-20
0.415451,-9,1671,8090,37,-77,-70
0.41559,-8,1648,8124,31,-71,25
0.415729,73,1716,8088,37,-64,-39
0.415869,33,1688,8084,50,-58,-20
0.41601,41,1706,8123,19,-103,-45
0.416147,37,1714,8056,75,-71,-26
0.416288,-31,1659,8131,-7,-71,-1
0.416427,10,1657,8061,75,-58,-45
0.416567,-15,1658,8132,25,-52,-1
0.416705,-5,1710,8052,25,-122,-58
0.416844,28,1696,8078,56,-26,12
0.416983,-1,1696,8100,19,-84,-45
0.417123,4,1714,8121,69,-64,-20
0.417262,-18,1691,8106,12,-39,12
0.417401,12,1674,8097,94,-122,-45
0.417541,-13,1664,8069,-13,-77,-13
0.417681,-19,1678,8083,75,-39,-51
0.41782,27,1671,8060,19,-58,-7
0.417959,-22,1682,8064,75,-128,-20
0.418099,33,1725,8062,12,-58,-26
0.41824,43,1741,8034,75,-45,-26
0.418378,35,1672,8090,63,-116,-1
0.418516,-12,1616,8116,19,-20,-20
0.418655,-4,1684,8065,44,-128,-58
0.418795,12,1691,8049,56,-52,12
0.418934,22,1668,8067,12,-52,-26
0.419074,-37,1679,8098,69,-90,-20
0.419212,13,1684,8070,31,-64,-32
0.419353,-2,1665,8027,44,-58,-7
0.419491,-17,1638,8082,44,-71,-7
0.419631,8,1621,8115,0,-71,-51
0.41977,23,1659,8068,56,-90,-13
0.419909,-22,1730,8123,75,-52,-26
0.420048,-1,1716,8128,25,-103,-20
0.420188,46,1753,8057,12,-39,-45
0.420327,54,1713,8057,56,-58,18
0.420466,-16,1700,8134,19,-90,-64
0.420606,-71,1648,8101,94,-116,-20
0.420745,-46,1732,8042,0,-33,-32
0.420884,-15,1676,8063,88,-64,-13
0.421024,-32,1662,8066,0,-71,-32
0.421163,23,1694,8075,75,-96,-13
0.421302,21,1703,8057,0,-64,-20
0.421442,-43,1649,8127,75,-39,-45
0.421581,-15,1645,8097,37,-90,25
0.42172,39,1712,8073,50,-71,-45
0.42186,37,1720,8114,37,-64,-7
0.421999,7,1684,8126,44,-84,-20
0.422138,16,1680,8087,50,-45,-32
0.422278,-2,1697,8077,69,-90,-20
0.422417,-1,1725,8091,6,-45,-13
0.422556,-17,1662,8097,50,-90,-20
0.422696,-1,1700,8050,44,-58,-20
0.422835,-24,1675,8082,63,-90,-45
0.422974,-2,1747,8062,0,-39,6
0.423114,-17,1688,8080,44,-71,-7
0.423253,10,1690,8067,37,-71,-39
0.423392,6,1705,8110,81,-84,-39
0.423531,-70,1709,8065,-19,-84,25
0.423671,38,1686,8120,88,-64,-64
0.42381,11,1689,8105,6,-77,-1
0.42395,26,1707,8092,113,-84,-45
0.424089,-8,1713,8072,-44,-45,-7
0.424228,30,1662,8115,88,-84,-13
0.424367,9,1680,8111,63,-58,-13
0.424507,23,1700,8069,6,-71,-26
0.424646,-3,1669,8083,50,-103,-32
0.424785,-87,1685,8060,50,-7,6
0.424925,46,1721,8069,31,-135,-45
0.425064,11,1717,8096,37,-52,-7
0.425203,15,1667,8066,69,-71,-26
0.425343,20,1674,8116,31,-71,-45
0.425482,6,1687,8128,31,-58,25
0.425622,26,1717,8125,69,-103,-51
0.425761,22,1738,8107,12,-52,-20
0.4259,-17,1701,8091,56,-64,-32
0.426039,44,1734,8079,63,-71,-13
0.426179,28,1684,8088,50,-77,-13
0.426319,32,1676,8058,6,-84,-20
0.426457,10,1718,8113,75,-71,-26
0.426597,49,1702,8083,25,-52,-39
0.426736,-23,1679,8071,25,-52,18
0.426875,-22,1710,8043,63,-109,-26
0.427014,5,1696,8065,44,-45,-32
0.427153,16,1694,8083,63,-109,-32
0.427293,44,1749,8078,-7,-26,6
0.427432,5,1729,8048,63,-96,-39
0.427572,4,1723,8123,37,-90,-1
0.427712,26,1666,8108,56,-58,-32
0.427851,22,1721,8034,25,-45,-20
0.427991,-9,1701,8047,37,-77,-26
0.428129,-14,1679,8066,63,-96,-45
0.428268,-1,1703,8091,44,-71,12
0.428408,6,1729,8113,12,-39,-26
0.428547,11,1725,8116,56,-77,-26
0.428686,-14,1732,8054,56,-52,-13
0.428827,-17,1773,8117,12,-90,-39
0.428965,-49,1680,8085,50,-45,-7
0.429104,-11,1670,7994,50,-84,-32
0.429243,-25,1699,8058,25,-58,-7
0.429385,-62,1677,8070,63,-45,-32
0.429522,-18,1687,8092,12,-64,-7
0.429662,12,1720,8111,88,-103,-64
0.429801,-17,1716,8076,0,-33,56
0.42994,-15,1651,8094,75,-122,-121
0.43008,30,1704,8062,6,-33,62
0.430219,-17,1687,8083,19,-64,-51
0.430358,4,1651,8080,100,-58,-45
0.430497,14,1691,8118,25,-90,25
0.430637,47,1686,8133,31,-64,-13
0.430776,42,1694,8073,75,-58,-70
0.430915,33,1696,8077,-7,-71,12
0.431055,-4,1684,8146,88,-90,-51
0.431194,23,1675,8139,31,-84,-7
0.431337,10,1722,8106,63,-45,-1
0.431473,-13,1693,8167,25,-71,-20
0.431612,0,1757,8115,31,-84,-26
0.431751,26,1682,8026,50,-71,-32
0.431891,-18,1658,8079,44,-77,-13
0.43203,2,1651,8076,6,-71,12
0.432169,-28,1664,8108,107,-64,-70
0.432309,-15,1700,8016,-19,-52,18
0.432448,40,1685,8066,63,-116,-51
0.432587,0,1718,8080,31,-77,-26
0.432727,2,1695,8104,31,-33,18
0.432866,-40,1670,8051,50,-103,-89
0.433005,16,1736,8033,63,-39,37
0.433145,-6,1676,8051,25,-103,-58
0.433284,49,1677,8085,25,-58,18
0.433423,37,1725,8062,50,-77,-39
0.433563,0,1688,8087,44,-58,-20
0.433702,-34,1713,8080,31,-64,-1
0.433841,-42,1681,8105,31,-96,-13
0.43398,28,1679,8031,56,-45,-26
0.43412,2,1701,8093,56,-103,-39
0.434259,-72,1686,8109,0,-64,6
0.4344,-61,1690,8054,50,-84,-51
0.434537,-29,1670,8085,44,-45,-13
0.434677,-2,1686,8111,50,-84,-32
0.434816,-32,1687,8066,25,-58,6
0.434956,31,1704,8062,69,-90,-13
0.435095,63,1680,8064,31,-71,-20
0.435234,28,1724,8046,44,-64,-13
0.435374,19,1688,8036,25,-71,-32
0.435513,87,1728,8078,69,-64,-7
0.435653,-28,1757,8059,37,-84,-32
0.435793,-59,1693,8096,19,-64,-26
0.435931,-30,1666,8136,25,-77,12
0.43607,1,1695,8035,69,-58,-45
0.436212,20,1726,8101,25,-84,-20
0.436349,11,1693,8106,69,-96,-32
0.436488,44,1722,8063,12,-84,-1
0.436628,23,1696,8064,69,-71,-70
0.436767,53,1707,8073,50,-33,18
0.436906,44,1710,8072,31,-77,-51
0.437045,-25,1676,8082,50,-90,-13
0.437185,-46,1650,8092,50,-71,-70
0.437324,-7,1692,8055,6,-64,18
0.437465,41,1736,8037,25,-96,6
0.437603,-24,1703,8083,75,-77,-76
0.437742,-38,1648,8077,25,-64,-13
0.437881,-5,1696,8090,50,-77,-20
0.438021,-10,1774,8082,31,-52,-20
0.43816,18,1696,8102,12,-45,-7
0.4383,-7,1675,8065,88,-96,-39
0.438439,15,1723,8060,6,-90,-20
0.438578,7,1682,8088,56,-39,-26
0.438717,-23,1693,8077,69,-96,-32
0.438856,-59,1665,8047,-7,-58,6
0.438996,26,1637,8080,100,-71,-26
0.439135,22,1699,8094,-7,-77,-7
0.439274,-56,1676,8057,63,-52,-32
0.439414,14,1711,8039,56,-109,-26
0.439553,-55,1691,8017,31,-71,6
0.439692,26,1669,8073,37,-58,-51
0.439832,3,1687,8084,56,-77,-7
0.439971,-15,1679,8097,37,-64,-32
0.44011,36,1682,8080,69,-77,-39
0.44025,-6,1716,8109,12,-64,6
0.440389,-57,1681,8083,69,-64,-13
0.440528,21,1665,8104,19,-64,-26
0.440668,33,1684,8062,75,-84,-26
0.440807,-13,1641,8108,63,-64,-26
0.440946,32,1667,8072,0,-64,56
0.441086,5,1629,8084,88,-77,-108
0.441225,12,1646,8081,25,-71,6
0.441364,-2,1631,8032,19,-58,6
0.441504,2,1680,8086,94,-128,-51
0.441643,-21,1698,8100,-19,-1,18
0.441782,-16,1692,8103,75,-103,-39
0.441922,-11,1684,8120,50,-77,-26
0.442061,-22,1672,8066,12,-39,6
0.4422,19,1698,8077,81,-96,-51
0.442339,29,1700,8073,-19,-52,12
0.442479,-10,1682,8077,81,-64,-32
0.442618,-6,1676,8113,37,-71,-26
0.442757,-23,1669,8106,37,-90,-13
0.442897,-24,1625,8091,63,-109,-45
0.443036,-14,1648,8062,6,-52,-1
0.443175,37,1695,8037,50,-39,-32
0.443315,16,1660,8095,63,-122,-7
0.443454,5,1658,8109,44,-71,-39
0.443593,-6,1650,8063,31,-33,6
0.443733,-30,1676,8036,75,-128,-64
0.443872,-14,1722,8102,37,-58,-13
0.444011,-23,1678,8114,19,-52,12
0.444151,-10,1641,8053,69,-109,-26
0.44429,33,1693,8090,50,-58,-39
0.444429,42,1688,8080,37,-64,-1
0.44457,-19,1720,8120,44,-64,-7
0.444708,-23,1682,8099,75,-71,-32
0.444847,-19,1681,8055,19,-84,-32
0.444987,-50,1697,8057,44,-52,-1
0.445126,-51,1658,8108,56,-84,-13
0.445265,17,1664,8077,50,-71,-39
0.445405,11,1702,8087,25,-71,-13
0.445544,37,1685,8066,31,-64,-7
0.445683,48,1727,8091,56,-90,-64
0.445822,0,1684,8041,25,-58,-7
0.445962,-38,1690,8062,44,-71,6
0.446101,-3,1694,8090,50,-77,-58
0.44624,3,1687,8028,31,-84,-13
0.44638,-13,1722,8054,63,-84,-45
0.446519,26,1707,8075,0,-26,37
0.446658,30,1707,8091,94,-103,-76
0.446798,-4,1666,8120,6,-58,25
0.446937,-39,1697,8048,75,-64,-51
0.447076,10,1697,8109,19,-77,-13
0.447216,3,1714,8129,63,-90,-7
0.447355,-2,1678,8067,25,-45,-39
0.447494,3,1664,8094,44,-71,-7
0.447634,-4,1672,8110,50,-84,-39
0.447773,13,1696,8129,50,-58,-1
0.447912,8,1676,8083,6,-71,-1
0.448052,31,1672,8089,88,-96,-64
0.448191,41,1656,8089,-13,-26,-26
0.448332,-4,1671,8103,88,-116,-7
0.44847,-4,1710,8091,25,-52,-13
0.448609,-20,1678,8051,37,-58,-58
0.448748,-4,1662,8031,50,-90,25
0.448887,-46,1671,8132,31,-64,-58
0.449027,-15,1659,8077,56,-58,-20
0.449166,23,1624,8062,37,-90,-13
0.449306,-1,1643,8036,12,-58,-32
0.449445,-5,1663,8045,63,-52,-1
0.449584,32,1694,8112,50,-96,-32
0.449723,38,1656,8092,50,-64,-26
0.449863,10,1671,8040,19,-52,-1
0.450002,-20,1726,8044,50,-96,-45
0.450141,-9,1678,8079,50,-52,-20
0.450281,10,1700,8076,81,-103,-1
0.45042,10,1678,8023,25,-39,-26
0.450559,13,1744,8081,56,-64,-26
0.450699,95,1682,8107,-7,-64,-1
0.450838,-26,1730,8097,125,-122,-76
0.450977,-27,1695,8065,6,-45,25
0.451117,19,1672,8065,44,-71,-58
0.451256,-8,1676,8101,19,-64,12
0.451395,44,1703,8094,50,-103,-58
0.451535,-42,1667,8128,37,-20,-7
0.451674,-31,1655,8095,44,-116,-39
0.451813,-35,1650,8046,63,-52,-7
0.451953,-13,1642,8102,44,-71,-1
0.452092,33,1652,8055,56,-90,-39
0.452231,1,1721,8076,12,-52,-1
0.45237,-17,1707,8063,44,-71,-39
0.45251,20,1659,8052,37,-52,-20
0.452649,-8,1691,7988,69,-103,-20
0.452788,33,1656,8082,25,-58,-20
0.452928,24,1652,8069,44,-84,-7
0.453067,4,1639,8039,63,-77,-45
0.453206,-7,1652,8046,12,-52,12
0.453346,-32,1640,8061,50,-64,-51
0.453485,-60,1667,8125,44,-84,-1
0.453624,-31,1659,8105,31,-39,-45
0.453764,6,1731,8059,69,-128,-1
0.453903,-4,1673,8076,44,-58,-45
0.454046,19,1656,8165,44,-71,6
0.454182,20,1704,8089,19,-45,-20
0.454321,-1,1694,8119,37,-103,-39
0.45446,-2,1650,8138,44,-52,-26
0.4546,-3,1721,8081,44,-96,-7
0.454739,42,1687,8080,37,-39,6
0.454878,-15,1622,8116,50,-58,-32
0.455018,-13,1626,8135,37,-128,-32
0.455157,6,1659,8114,25,-39,-26
0.455296,-38,1687,8106,44,-84,-1
0.455436,33,1680,8090,75,-39,-39
0.455575,-13,1666,8081,44,-128,6
0.455714,68,1666,8116,63,-39,-70
0.455853,-3,1706,8122,19,-71,12
0.455993,-40,1670,8151,50,-71,-26
0.456132,-62,1654,8081,50,-96,-58
0.456271,-4,1683,8046,50,-45,25
0.456411,-14,1664,8055,50,-77,-32
0.45655,17,1661,8061,25,-103,-45
0.456689,-14,1699,8062,44,-45,-13
0.456829,29,1672,8067,37,-52,6
0.456968,16,1677,8044,50,-116,-45
0.457107,-2,1662,8066,12,-64,-39
0.457247,15,1656,8070,63,-52,-7
0.457386,24,1700,8027,31,-77,-1
0.457525,-31,1623,8128,50,-77,-58
0.457665,2,1663,8107,12,-52,18
0.457804,-6,1646,8054,63,-90,-51
0.457943,16,1699,8088,50,-71,-39
0.458083,40,1661,8110,25,-64,-13
0.458222,3,1705,8024,50,-77,12
0.458361,-47,1676,8080,56,-33,-20
0.458501,18,1625,8091,31,-109,-45
0.45864,21,1639,8092,63,-77,-20
0.458779,-49,1646,8092,19,-52,6
0.458919,17,1679,8106,44,-90,-26
0.459058,-1,1690,8128,56,-52,-51
0.459197,23,1666,8097,63,-64,12
0.459336,-25,1638,8076,37,-96,-58
0.459477,26,1660,8073,44,-71,12
0.459615,18,1581,8100,56,-64,-45
0.459757,59,1652,8098,12,-52,-7
0.459894,36,1660,8088,37,-64,-45
0.460035,-25,1661,8117,69,-84,31
0.460172,2,1695,8120,37,-64,-58
0.460312,13,1701,8089,25,-58,-7
0.460452,-44,1685,8131,75,-90,-39
0.460592,-14,1736,8098,12,-58,-26
0.46073,20,1669,8099,63,-58,-7
0.460869,-19,1689,8099,-7,-96,-51
0.46101,-12,1652,8031,75,-58,12
0.461148,-5,1688,8019,31,-52,-20
0.461287,2,1649,8033,31,-84,-26
0.461426,16,1694,8082,56,-58,-45
0.461566,-11,1706,8089,25,-64,18
0.461706,-36,1678,8091,56,-71,-58
0.461846,98,1691,8115,37,-45,12
0.461984,10,1690,8094,56,-109,-58
0.462124,26,1647,8138,19,-58,-39
0.462262,19,1674,8092,44,-20,31
0.462403,-9,1672,8054,31,-128,-76
0.462541,-45,1662,8083,56,-52,12
0.462683,-7,1692,8053,19,-71,-26
0.462819,3,1660,8055,63,-64,-39
0.462959,22,1676,8110,19,-84,-1
0.463098,-6,1697,8085,44,-52,-45
0.463237,40,1674,8101,69,-103,-13
0.463377,25,1731,8064,31,-64,-45
0.463517,-17,1675,8103,25,-26,18
0.463656,-22,1638,8146,50,-96,-39
0.463795,22,1637,8103,44,-84,-26
0.463935,15,1674,8096,50,-71,-20
0.464073,-8,1685,8006,25,-58,-26
0.464213,27,1675,8062,107,-90,-51
0.464352,22,1663,8078,-38,-52,12
0.464491,52,1694,8100,75,-103,-45
0.46463,67,1674,8051,50,-58,-7
0.46477,12,1682,8093,37,-58,-32
0.464909,-18,1690,8069,37,-84,-13
0.465048,54,1676,8114,63,-71,-20
0.465188,32,1668,8104,31,-77,-7
0.465327,-3,1702,8077,63,-64,-26
0.465466,38,1662,8052,31,-64,-20
0.465606,13,1684,8072,50,-84,-39
0.465745,-39,1725,8015,25,-109,6
0.465884,-23,1708,8049,94,-58,-70
0.466024,33,1591,8066,12,-52,12
0.466163,26,1651,8087,44,-90,-32
0.466302,-32,1705,8090,75,-39,-13
0.466442,-41,1681,8100,44,-122,-32
0.466581,-3,1664,8091,56,-52,-45
0.46672,56,1680,8097,19,-45,-1
0.46686,-33,1688,8092,63,-90,-1
0.466999,-7,1680,8120,12,-71,-70
0.467138,16,1666,8108,75,-84,-7
0.467278,24,1640,8082,69,-64,-45
0.467418,-21,1714,8100,6,-45,-7
0.467557,35,1715,8093,50,-90,6
0.467696,-7,1672,8102,56,-109,-64
0.467836,-9,1652,8076,12,-20,12
0.467974,43,1681,8090,63,-84,-32
0.468114,0,1699,8098,37,-58,-45
0.468253,-8,1640,8068,6,-84,-1
0.468394,-15,1680,8148,69,-39,-32
0.468532,-2,1711,8137,44,-84,-26
0.468671,29,1667,8143,25,-64,-26
0.468811,-5,1686,8131,44,-64,-26
0.46895,79,1722,8097,75,-77,-26
0.46909,4,1607,8034,-7,-45,-1
0.469228,-1,1625,8067,50,-84,-26
0.469367,-3,1681,8097,56,-84,-58
0.469508,26,1668,8067,-7,-45,31
0.469646,-17,1643,8062,88,-84,-45
0.469785,0,1657,8071,31,-71,-1
0.469925,-13,1671,8103,6,-64,-45
0.470066,-11,1678,8131,69,-64,18
0.470203,14,1662,8130,12,-39,-32
0.470344,50,1726,8096,88,-122,-39
0.470482,22,1697,8069,-7,-33,-7
0.470624,2,1679,8100,56,-103,-58
0.470761,17,1675,8078,19,-33,37
0.470901,23,1662,8069,56,-64,-58
0.471039,-59,1598,8035,12,-77,-7
0.471179,4,1654,8056,75,-96,-39
0.471318,40,1686,8079,31,-39,-1
0.471457,10,1673,8106,56,-84,-51
0.471597,-8,1682,8106,25,-58,12
0.471736,34,1660,8072,44,-71,-26
0.471875,1,1672,8085,31,-71,-32
0.472018,20,1669,8061,81,-77,-20
0.472154,-22,1642,8108,19,-64,-1
0.472293,-3,1703,8080,50,-84,-26
0.472433,-3,1707,8101,56,-71,-45
0.472572,-6,1684,8108,12,-52,6
0.472713,1,1691,8115,75,-103,-1
0.47285,17,1618,8091,31,-71,-51
0.47299,26,1703,8113,69,-58,-32
0.473132,-20,1717,8098,19,-45,6
0.473269,-6,1730,8058,12,-90,-7
0.473408,33,1690,8077,44,-84,-26
0.473547,37,1671,8058,56,-58,-32
0.473686,-13,1694,8084,31,-71,-7
0.473826,-1,1680,8085,69,-39,-32
0.473965,-14,1651,8086,56,-103,-20
0.474104,32,1666,8074,25,-64,-20
0.474245,12,1668,8097,44,-71,-13
0.474383,-18,1635,8153,25,-52,-20
0.474522,-15,1709,8113,50,-96,-20
0.474664,36,1663,8073,81,-45,-26
0.474801,9,1689,8033,0,-71,-7
0.47494,-17,1688,8071,69,-58,-32
0.47508,22,1650,8117,50,-77,-32
0.475219,-2,1687,8099,19,-90,12
0.475359,4,1656,8103,44,-71,-32
0.475497,-8,1663,8101,44,-71,-20
0.475637,6,1690,8123,63,-96,-58
0.475776,-55,1656,8156,19,-45,-1
0.475915,25,1706,8104,81,-128,-26
0.476055,48,1676,8100,-13,-26,-1
0.476194,-48,1663,8130,88,-90,-39
0.476333,3,1710,8139,50,-64,-13
0.476473,9,1682,8093,44,-77,-26
0.476613,36,1709,8034,37,-64,-7
0.476752,-26,1652,8137,50,-84,-13
0.476892,-18,1704,8098,50,-45,-39
0.477031,-19,1690,8102,31,-103,-39
0.477169,38,1681,8106,69,-39,31
0.477309,23,1688,8077,25,-96,-76
0.477449,36,1644,8078,50,-33,31
0.477587,22,1670,8102,69,-103,-76
0.477727,-1,1673,8106,12,-58,37
0.477866,14,1666,8110,56,-64,-39
0.478005,-24,1651,8128,12,-52,-13
0.478146,-6,1695,8099,63,-122,-45
0.478284,39,1666,8029,94,-39,-26
0.478426,2,1670,8031,0,-64,6
0.478563,-17,1687,8066,12,-77,-32
0.478702,22,1734,8058,81,-58,-26
0.478841,2,1708,8070,25,-52,18
0.478981,-6,1711,8133,56,-96,-89
0.47912,-14,1714,8094,25,-58,31
0.47926,11,1660,8068,88,-128,-64
0.479402,34,1700,8096,0,-7,12
0.479538,-5,1683,8095,44,-84,-39
0.479677,38,1725,8047,44,-84,-1
0.479817,-18,1744,8066,37,-71,-51
0.479956,44,1720,8030,25,-33,12
0.480095,40,1670,8144,94,-96,-51
0.480235,-49,1680,8073,37,-84,-1
0.480374,-17,1743,8104,25,-84,-45
0.480513,31,1702,8092,56,-96,-13
0.480652,18,1703,8077,31,-20,6
0.480792,-30,1688,8102,63,-77,-51
0.480931,-24,1699,8085,12,-90,-39
0.48107,13,1687,8090,69,-71,-20
0.48121,-20,1674,8107,37,-84,6
0.481349,-19,1717,8114,37,-77,-51
0.481488,10,1682,8126,50,-64,-7
0.481628,7,1652,8094,37,-84,-13
0.481767,-35,1708,8027,12,-58,-13
0.481906,59,1704,8057,69,-96,-76
0.482046,44,1685,8083,56,-58,18
0.482185,16,1746,8092,0,-33,12
0.482324,9,1688,8125,75,-141,-95
0.482464,34,1649,8134,37,-52,50
0.482603,19,1691,8129,100,-90,-64
0.482742,-50,1707,8105,-19,-52,6
0.482882,19,1683,8098,81,-90,-26
0.483021,-29,1674,8105,37,-58,-51
0.48316,8,1672,8075,50,-84,25
0.4833,3,1716,8092,12,-33,-64
0.483439,-10,1659,8083,88,-135,-26
0.483578,-3,1676,8024,6,-33,12
0.483717,37,1731,8079,56,-90,-39
0.483857,6,1670,8105,69,-45,-32
0.483997,24,1641,8144,0,-96,-13
0.484135,15,1699,8132,75,-39,-20
0.484275,4,1717,8033,-7,-71,-13
0.484414,34,1683,8071,56,-96,-39
0.484553,11,1715,8131,44,-52,-13
0.484693,66,1715,8042,37,-84,-20
0.484832,5,1679,8059,56,-58,-58
0.484971,-9,1657,8083,25,-84,12
0.48511,56,1698,8073,56,-58,-13
0.48525,8,1717,8036,44,-96,-45
0.485389,23,1708,8109,56,-39,-7
0.48553,12,1706,8076,56,-77,-1
0.485668,27,1714,8085,37,-71,-26
0.485808,-29,1657,8046,37,-45,-32
0.485947,52,1710,8070,88,-116,-26
0.486086,29,1762,8059,0,-39,12
0.486225,4,1687,8081,56,-77,-45
0.486364,-40,1688,8036,81,-90,-20
0.486504,48,1684,8082,31,-52,-39
0.486643,11,1676,8105,19,-58,37
0.486783,-13,1708,8076,37,-58,-58
0.486922,3,1662,8099,81,-90,-39
0.487061,-21,1686,8061,12,-58,6
0.487205,-19,1699,8104,69,-64,-32
0.48734,-25,1660,8096,12,-52,-39
0.487479,17,1696,8137,69,-96,-13
0.487618,-5,1680,8126,44,-45,-26
0.487758,-2,1647,8132,6,-84,-7
0.487897,61,1650,8110,88,-103,-7
0.488036,19,1666,8089,0,-71,-45
0.488176,11,1715,8059,50,-58,6
0.488315,11,1692,8018,63,-71,-45
0.488455,-16,1662,8024,50,-45,-39
0.488594,-43,1697,8067,37,-90,-7
0.488733,-13,1715,8047,44,-64,-20
0.488872,42,1736,8080,19,-71,-13
0.489013,36,1771,8028,69,-58,-45
0.489151,-8,1713,8130,25,-84,12
0.48929,-29,1723,8125,44,-45,-58
0.48943,-9,1669,8097,63,-103,-20
0.48957,-2,1660,8129,-7,-33,-13
0.489708,7,1682,8142,75,-103,-39
0.489848,-23,1679,8101,31,-52,-20
0.489987,-12,1676,8139,50,-45,6
0.490126,4,1653,8108,19,-84,-39
0.490266,57,1672,8070,75,-71,-13
0.490405,7,1720,8109,44,-58,-64
0.490544,6,1621,8091,19,-84,18
0.490683,8,1686,8096,25,-45,6
0.490823,18,1693,8100,81,-103,-64
0.490962,72,1675,8070,12,-58,-20
0.491102,78,1688,8049,37,-39,-7
0.491241,-12,1676,8064,50,-122,-26
0.49138,-10,1681,8079,44,-33,-20
0.49152,-1,1716,8149,81,-84,-51
0.491659,-1,1660,8121,12,-84,12
0.491798,44,1674,8081,50,-52,-13
0.491937,30,1730,8102,63,-96,-51
0.492077,-14,1685,8078,12,-26,-7
0.492216,-15,1716,8086,88,-84,-39
0.492355,-5,1698,8034,0,-71,-7
0.492495,62,1663,8087,56,-71,-20
0.492634,36,1691,8106,88,-77,-58
0.492773,-17,1709,8127,31,-84,-13
0.492913,-25,1655,8111,50,-52,12
0.493052,-36,1653,8083,12,-96,-39
0.493191,34,1656,8078,94,-64,-20
0.493331,21,1694,8133,6,-52,-26
0.49347,50,1729,8053,56,-90,-7
0.493609,15,1732,8044,56,-52,-20
0.493748,-16,1714,8089,50,-77,-39
0.493889,-43,1674,8112,25,-90,-13
0.494028,35,1697,8128,37,-64,-39
0.494168,5,1672,8097,25,-39,18
0.494306,5,1719,8080,56,-96,-20
0.494445,-2,1702,8141,37,-71,-20
0.494584,-27,1699,8073,81,-71,-45
0.494729,-18,1623,8085,37,-64,6
0.494863,12,1689,8091,56,-109,-64
0.495002,9,1732,8091,25,-26,31
0.495141,8,1704,8096,37,-84,-39
0.495281,26,1664,8111,31,-71,-20
0.49542,10,1684,8111,50,-71,-20
0.49556,45,1698,8083,56,-77,-39
0.495699,17,1659,8050,25,-90,-39
0.495839,39,1687,8046,50,-45,12
0.495979,-31,1665,8070,19,-64,-26
0.496117,29,1649,8147,63,-84,-26
0.496257,-9,1707,8163,37,-84,-32
0.496396,42,1726,8096,56,-77,-39
0.496535,-3,1687,8099,19,-52,18
0.496674,19,1663,8124,56,-84,-70
0.496813,-45,1659,8110,37,-71,18
0.496953,42,1651,8039,25,-71,-26
0.497094,70,1696,8020,69,-71,-39
0.497231,-25,1728,8075,31,-71,6
0.497376,3,1728,8069,37,-58,-39
0.497511,0,1706,8066,37,-77,-7
0.49765,4,1718,8030,56,-39,-39
0.497789,-10,1750,8054,44,-77,-13
0.497928,31,1679,8078,0,-64,-7
0.498067,34,1641,8058,100,-90,-70
0.498207,-30,1696,8100,0,-77,12
0.498346,-12,1710,8037,25,-71,6
0.498486,-11,1690,8121,75,-45,-58
0.498625,43,1720,8102,25,-84,-1
0.498764,14,1729,8152,50,-77,18
0.498904,-13,1688,8104,100,-77,-58
0.499043,-33,1663,8133,-13,-71,-39
0.499182,15,1663,8145,44,-45,-1
0.499321,-2,1677,8101,81,-96,-64
0.49946,-13,1660,8065,-13,-33,-1
0.499602,45,1680,8070,81,-64,-1
0.499739,4,1663,8084,50,-64,-20
0.49988,9,1697,8033,31,-109,-45
0.500018,25,1714,8086,56,-45,-26
0.500157,33,1690,8079,6,-64,12
0.500297,29,1688,8051,44,-52,-39
0.500436,43,1737,8068,50,-45,-13
0.500575,-27,1670,8108,100,-116,-26
0.500715,28,1706,8116,6,-64,-26
0.500854,-16,1674,8046,6,-33,-7
0.500993,42,1689,8048,119,-128,-13
0.501132,-2,1702,8043,31,-26,-20
0.501272,57,1680,8071,44,-103,-70
0.501411,-15,1700,8062,37,-64,31
0.50155,2,1705,8099,56,-64,-45
0.50169,18,1656,8099,69,-84,-32
0.501829,19,1670,8088,0,-39,-1
0.501969,20,1634,8073,69,-77,-51
0.502108,10,1654,8009,56,-103,6
0.502247,-15,1678,8060,31,-84,-58
0.502386,-8,1650,8015,37,-33,25
0.502526,-29,1655,8097,44,-77,-64
0.502665,43,1673,8082,50,-64,-7
0.502804,5,1675,8066,12,-52,18
0.502944,-16,1676,8123,75,-103,-58
0.503083,-1,1686,8059,31,-52,-1
0.503222,-21,1728,8024,44,-96,-20
0.503362,10,1702,8077,50,-39,-32
0.503501,-16,1701,8063,19,-77,-1
0.50364,43,1703,8068,94,-90,-39
0.503779,12,1733,8094,31,-58,-26
0.503921,13,1710,8058,37,-103,-7
0.504058,-26,1645,8074,31,-64,-58
0.504198,24,1602,8046,31,-39,37
0.504337,-22,1669,8093,69,-90,-39
0.504477,-12,1679,8097,56,-103,-39
0.504616,15,1714,8036,12,-26,-7
0.504755,14,1668,8039,69,-96,-1
0.504894,4,1683,8054,37,-109,-58
0.505033,48,1637,8081,25,-13,12
0.505172,-13,1691,8106,69,-109,-32
0.505312,28,1661,8082,37,-39,-26
0.505451,-4,1673,8060,56,-96,-20
0.505591,12,1723,8103,12,-52,-20
0.50573,3,1701,8080,81,-90,6
0.505869,43,1625,8055,19,-77,-32
0.506009,59,1692,8079,75,-52,-51
0.506149,43,1722,8129,44,-64,-7
0.506289,-50,1653,8110,19,-58,-13
0.506426,-37,1694,8080,63,-84,-32
0.506566,-20,1642,8062,6,-52,6
0.506705,0,1642,8115,69,-96,-45
0.506844,15,1635,8088,25,-64,-13
0.506984,11,1664,8087,56,-71,-20
0.507124,-10,1674,8060,56,-52,12
0.507262,24,1656,8073,56,-71,-39
0.507403,31,1620,8093,12,-71,-26
0.507541,2,1678,8068,50,-58,-26
0.507681,-22,1747,8066,56,-90,-20
0.50782,12,1702,8100,44,-45,-13
0.507959,10,1638,8071,0,-45,6
0.508099,32,1681,8112,113,-128,-70
0.508238,10,1708,8103,0,-52,12
0.508377,10,1697,8114,63,-58,-32
0.508516,18,1666,8108,25,-52,6
0.508656,36,1741,8019,63,-71,-39
0.508795,32,1759,8047,50,-90,-1
0.508934,18,1683,8046,63,-77,-58
0.509075,2,1660,8098,19,-64,18
0.509213,4,1700,8068,75,-77,-58
0.509352,-32,1678,8066,0,-45,12
