Average_IMU_SPS_Hz,7177.791
IMU_Time_sec,Accel_X_raw,Accel_Y_raw,Accel_Z_raw,Gyro_X_raw,Gyro_Y_raw,Gyro_Z_raw
0.0,-146,1708,8116,-13,-52,-7
0.000143,-122,1681,8067,100,-128,-64
0.000278,-142,1736,8144,-7,-20,-1
0.000418,-146,1725,8145,37,-90,-7
0.000557,-120,1661,8178,88,-84,-39
0.000696,-76,1697,8074,12,-33,-13
0.000836,-134,1668,8114,31,-103,-39
0.000975,-150,1669,8080,31,-52,31
0.001114,-98,1666,8059,37,-52,-51
0.001254,-78,1660,8042,69,-103,-26
0.001393,-120,1701,8009,31,-71,-20
0.001532,-62,1575,8002,56,-58,-1
0.001671,-25,1622,8000,19,-33,-7
0.001811,21,1642,8025,75,-109,-77
0.00195,-9,1652,8002,12,-58,31
0.002089,-24,1606,7949,37,-90,-26
0.002229,-15,1655,8041,69,-58,-39
0.002368,-56,1657,8065,31,-77,-7
0.002507,-39,1629,8030,19,-45,-20
0.002647,-40,1599,8090,56,-109,6
0.002786,-98,1620,8119,44,-71,-51
0.002925,-73,1661,8135,31,-52,-26
0.003065,-94,1630,8084,56,-116,-20
0.003204,-26,1616,8108,50,-39,-7
0.003343,-53,1654,8067,50,-96,-45
0.003483,-91,1629,8105,63,-77,-45
0.003622,-73,1655,8121,-7,-39,25
0.003761,-76,1698,8085,56,-77,-20
0.003901,-71,1624,8075,75,-77,-77
0.00404,-110,1657,8094,25,-84,31
0.004179,-47,1691,8143,63,-52,-32
0.004319,-101,1642,8097,31,-84,-39
0.004458,-171,1663,8113,69,-71,-26
0.004597,-54,1700,8134,6,-45,25
0.004736,-18,1718,8132,94,-103,-70
0.004876,-44,1678,8122,-7,-58,12
0.005015,-68,1657,8151,113,-109,-26
0.005154,-58,1700,8133,-7,-45,-32
0.005294,-21,1638,8139,56,-71,-20
0.005433,-33,1601,8121,31,-90,-20
0.005572,-5,1601,8126,63,-90,-45
0.005712,-13,1613,8097,50,-39,12
0.005851,-26,1634,8114,0,-116,-20
0.00599,-1,1571,8082,75,-52,-32
0.00613,-21,1611,8103,50,-84,-39
0.006269,25,1681,8062,37,-96,-20
0.006408,-38,1612,8066,6,-39,-13
0.006548,-44,1627,8089,50,-58,-13
0.006687,-68,1647,8065,63,-116,-13
0.006826,-42,1619,8052,50,-77,-32
0.006966,-48,1562,8047,12,-64,-13
0.007105,-81,1648,8011,69,-71,-32
0.007244,-71,1656,8052,37,-84,-1
0.007384,-115,1675,8098,75,-52,-13
0.007523,-123,1645,8099,6,-58,-32
0.007662,-109,1710,8098,63,-103,-26
0.007801,-172,1675,8035,19,-52,-1
0.007941,-134,1702,8066,75,-90,-32
0.008081,-99,1608,8118,19,-77,-20
0.008219,-108,1669,8125,69,-71,-26
0.008359,-63,1668,8090,0,-58,-1
0.008498,-137,1611,8056,81,-96,-64
0.008637,-105,1618,8106,19,-7,25
0.008777,-127,1666,8108,19,-122,-51
0.008916,-88,1659,8044,81,-77,-20
0.009056,-103,1600,8052,19,-64,-1
0.009195,-69,1619,8006,44,-45,-51
0.009334,-59,1624,8002,50,-109,-13
0.009473,-66,1633,8031,12,-33,-7
0.009613,-27,1625,8094,75,-116,-45
0.009752,-60,1606,8120,44,-26,-13
0.009891,15,1649,8131,25,-71,-26
0.010031,4,1697,8135,69,-96,12
0.010171,-35,1665,8144,25,-13,-58
0.01031,-40,1606,8198,31,-109,18
0.01045,7,1668,8227,44,-77,-58
0.010588,-55,1579,8244,31,-58,-26
0.010727,-59,1607,8192,63,-96,6
0.010867,-48,1612,8190,-13,-13,-7
0.011006,-33,1645,8151,88,-128,-58
0.011146,-69,1601,8162,44,-71,12
0.011285,-43,1612,8163,31,-64,-20
0.011424,-52,1580,8167,44,-58,-26
0.011563,-73,1623,8122,12,-77,12
0.011702,-50,1641,8098,69,-77,-45
0.011842,-49,1632,8094,88,-116,-39
0.011981,-80,1592,8024,6,-33,12
0.01212,-87,1589,8104,75,-96,-58
0.01226,-124,1638,8089,19,-64,18
0.012399,-89,1677,8070,25,-64,-45
0.01254,-143,1645,8001,69,-77,-20
0.012678,-114,1695,8044,6,-71,-7
0.012818,-88,1710,8004,125,-90,-45
0.012957,-111,1653,7996,-44,-45,-1
0.013096,-47,1720,8016,50,-84,-7
0.013236,-85,1629,8033,75,-77,-58
0.013378,-141,1675,8070,12,-77,-1
0.013515,-42,1678,8006,56,-58,-39
0.013653,-124,1678,8007,6,-64,-1
0.013792,-100,1675,8044,69,-58,-20
0.013932,-55,1679,8056,37,-90,-45
0.014071,-114,1659,8090,56,-84,6
0.01421,-37,1634,8121,-13,-26,-13
0.01435,-21,1672,8080,50,-109,-13
0.01449,51,1667,8138,56,-33,-13
0.014628,-33,1613,8127,31,-96,-7
0.014772,-44,1602,8148,12,-45,-32
0.014907,-4,1578,8184,63,-90,-32
0.015046,-63,1650,8171,37,-39,6
0.015186,11,1597,8215,25,-71,-64
0.015325,-26,1588,8257,88,-96,6
0.015464,-50,1611,8200,0,-39,-20
0.015603,-29,1526,8184,56,-84,-20
0.015743,-14,1636,8154,25,-52,-26
0.015882,-61,1641,8131,69,-84,-45
0.016021,-46,1569,8107,44,-71,-1
0.016161,-75,1609,8135,50,-96,-45
0.0163,-48,1640,8093,50,-52,-7
0.016439,-57,1637,8093,-7,-33,-1
0.016579,-25,1620,8075,100,-135,-51
0.016718,-94,1596,8033,37,-45,-13
0.016857,-104,1608,8030,-13,-52,-13
0.016997,-16,1638,8095,100,-90,-26
0.017136,-101,1626,8016,6,-26,-32
0.017275,-86,1684,8053,63,-96,-32
0.017415,-85,1620,8024,31,-84,6
0.017555,-103,1649,8035,56,-64,-51
0.017693,-155,1700,7999,50,-58,-13
0.017833,-122,1693,7988,-13,-58,25
0.017972,-126,1658,8026,81,-116,-95
0.018111,-95,1687,8009,37,-39,37
0.01825,-49,1687,8030,50,-116,-58
0.01839,-119,1670,8037,6,-33,-7
0.01853,-94,1671,8059,81,-109,-58
0.018668,-44,1680,8010,31,-58,37
0.018808,-160,1704,8048,81,-84,-51
0.018947,-55,1668,8042,6,-77,-20
0.019086,-86,1674,8074,31,-26,-13
0.019226,-95,1690,8110,107,-116,-39
0.019365,-81,1655,8058,-7,-52,-20
0.019504,-87,1650,8161,37,-58,-1
0.019643,-50,1641,8123,50,-77,-45
0.019785,-31,1643,8184,50,-90,-13
0.019922,-27,1614,8154,25,-26,6
0.020062,-21,1606,8177,25,-77,-51
0.020202,0,1580,8118,75,-103,-20
0.02034,8,1619,8144,44,-71,-58
0.020479,-21,1586,8136,12,-39,44
0.020619,16,1575,8073,88,-116,-58
0.020758,-17,1634,8135,56,-20,18
0.020897,-28,1627,8122,25,-90,-58
0.021037,-40,1618,8079,12,-64,-13
0.021178,-62,1603,8007,88,-64,-1
0.021315,-113,1593,8058,37,-84,-45
0.021455,-45,1603,8087,44,-96,-32
0.021594,-70,1626,8072,44,-45,12
0.021735,-45,1656,8096,12,-71,-45
0.021873,-101,1649,8083,63,-84,-20
0.022012,-104,1641,8090,37,-90,-39
0.022151,-146,1663,8063,25,-33,-26
0.022291,-83,1687,8008,44,-96,25
0.02243,-96,1644,8024,44,-58,-64
0.022569,-114,1697,8023,37,-77,-13
0.022709,-134,1665,8037,19,-64,-32
0.022849,-57,1703,8038,75,-96,-13
0.022987,-101,1682,8039,-7,-26,-32
0.023126,-123,1673,8033,75,-90,-39
0.023265,-68,1629,8021,44,-52,-1
0.023406,-72,1653,8068,50,-96,-39
0.023545,-79,1625,8025,31,-39,-1
0.023684,-73,1610,8074,69,-90,-32
0.023823,-32,1659,8017,31,-52,-26
0.023963,-45,1654,8058,6,-84,-26
0.024102,-64,1633,8085,69,-64,-32
0.024243,10,1609,8103,56,-58,-1
0.02438,-21,1635,8107,19,-103,-39
0.02452,-30,1635,8119,69,-52,-20
0.024659,14,1583,8108,6,-84,6
0.024799,-2,1635,8126,56,-45,-51
0.024938,-23,1622,8119,37,-84,-1
0.025077,11,1565,8115,31,-33,-1
0.025218,8,1581,8143,50,-96,-45
0.025356,-41,1628,8151,44,-45,-7
0.025495,-95,1665,8148,31,-77,-51
0.025635,-50,1606,8155,50,-64,-13
0.025774,-38,1632,8112,56,-96,-13
0.025913,-60,1653,8082,25,-20,-39
0.026052,-49,1625,8101,56,-109,-1
0.026192,-71,1611,8155,31,-64,-7
0.026331,-71,1636,8088,25,-90,-32
0.02647,-168,1653,8092,63,-64,-45
0.02661,-93,1676,8036,25,-71,-1
0.026749,-98,1670,8016,44,-52,-45
0.026888,-65,1636,8021,44,-77,-1
0.027028,-95,1642,8006,56,-77,-39
0.027167,-55,1602,8005,12,-39,-1
0.027306,-138,1646,8057,50,-96,-26
0.027446,-63,1655,8039,88,-71,-45
0.027585,-81,1667,8018,-19,-77,-1
0.027724,-85,1698,8010,69,-84,-26
0.027864,-13,1650,8077,37,-64,-39
0.028003,-122,1695,7993,37,-90,-1
0.028142,-104,1661,8041,69,-64,-51
0.028282,-89,1636,8109,44,-96,-13
0.028421,-81,1650,8059,44,-64,-13
0.02856,-123,1612,8128,37,-84,-39
0.028699,-67,1660,8115,56,-96,-26
0.028839,-25,1646,8135,12,-33,6
0.028978,-46,1641,8174,56,-77,-39
0.029118,-72,1676,8159,19,-71,-26
0.029257,-69,1638,8146,94,-71,-7
0.029396,-89,1645,8150,0,-71,-20
0.029535,-8,1683,8115,69,-52,-26
0.029674,-6,1612,8124,31,-77,-20
0.029816,-44,1647,8120,69,-84,-32
0.029953,-74,1661,8159,-7,-58,-39
0.030092,-44,1636,8166,75,-77,12
0.030232,-72,1644,8171,31,-84,-51
0.030372,-70,1584,8112,56,-45,-7
0.03051,-49,1581,8134,31,-71,-13
0.03065,-83,1599,8104,25,-58,-39
0.030789,-76,1599,8071,44,-71,18
0.030928,-76,1600,8058,81,-109,-77
0.031068,-61,1629,8075,19,-64,31
0.031207,-79,1614,8062,25,-52,-70
0.031346,-74,1649,8067,75,-84,-1
0.031486,-101,1683,8060,0,-96,-20
0.031625,-83,1653,8047,75,-45,-13
0.031764,-126,1617,8087,69,-64,-13
0.031904,-125,1699,8029,0,-90,-32
0.032044,-97,1684,8036,81,-71,-45
0.032182,-142,1630,8067,31,-58,-13
0.032323,-85,1679,8082,69,-84,-13
0.032461,-38,1613,8123,-25,-45,-1
0.0326,-148,1637,8061,113,-128,-77
0.032741,-106,1638,8093,0,-39,56
0.032879,-65,1649,8048,56,-103,-89
0.033018,-97,1615,8096,25,-39,6
0.033159,-56,1614,8157,44,-90,-45
0.033297,-33,1602,8115,56,-71,-1
0.033438,10,1637,8153,31,-64,18
0.033576,-55,1640,8146,25,-96,-58
0.033715,-36,1656,8116,88,-52,-39
0.033854,-80,1606,8143,-7,-77,18
0.033993,-60,1583,8134,100,-71,-45
0.034133,-3,1583,8119,6,-77,-7
0.034272,-27,1641,8127,50,-71,-45
0.034412,-85,1633,8107,56,-103,-13
0.034551,-53,1630,8106,-13,-33,-26
0.034691,-69,1672,8121,100,-103,-39
0.034829,-33,1648,8123,25,-39,37
0.034969,-9,1601,8115,31,-45,-64
0.035108,-94,1640,8144,56,-128,-51
0.035248,-50,1627,8135,19,-26,37
0.035387,-126,1619,8154,69,-71,-51
0.035526,-77,1609,8132,25,-58,-32
0.035667,-53,1574,8087,-19,-52,37
0.035805,-93,1571,8094,144,-109,-83
0.035944,-27,1588,8047,-44,-20,31
0.036083,-25,1661,8059,88,-90,-51
0.036223,-97,1683,8058,19,-39,31
0.036362,-123,1696,8073,69,-90,-64
0.036501,-88,1620,8094,44,-84,-26
0.036641,-78,1645,8014,31,-45,-20
0.03678,-123,1647,8002,56,-71,-13
0.036919,-50,1642,8055,12,-64,-45
0.037059,-106,1695,8158,56,-90,-1
0.037198,-88,1683,8120,69,-71,-45
0.037337,-94,1671,8061,25,-84,-1
0.037477,-64,1617,8115,31,-71,-26
0.037616,-59,1658,8097,50,-52,-1
0.037755,-74,1629,8108,44,-71,-51
0.037894,-27,1630,8084,50,-84,-1
0.038034,-44,1629,8146,50,-84,-39
0.038173,-17,1652,8150,12,-64,-13
0.038313,-20,1626,8135,75,-90,-20
0.038452,-38,1648,8108,12,-33,-20
0.038591,-38,1616,8102,63,-116,-39
0.03873,-65,1646,8114,25,-33,37
0.03887,-39,1622,8127,56,-103,-77
0.039009,-49,1620,8084,56,-45,-7
0.039148,-77,1632,8110,25,-103,-20
0.039288,-90,1645,8094,12,-45,-20
0.039427,-55,1677,8166,63,-71,-13
0.039566,-50,1665,8137,56,-109,-58
0.039705,-71,1611,8098,19,-52,31
0.039846,-63,1593,8109,75,-90,-39
0.039987,-13,1664,8156,37,-45,-39
0.040123,-75,1674,8106,25,-77,-20
0.040263,-102,1599,8076,25,-58,6
0.040402,-60,1657,8091,44,-77,-26
0.040542,-75,1629,8089,44,-39,-13
0.040681,-69,1630,8101,69,-109,-20
0.04082,-41,1557,8087,69,-84,-26
0.040959,-38,1633,8082,19,-52,-13
0.041099,-123,1600,8068,37,-84,-32
0.041239,-86,1656,8055,81,-77,-13
0.041377,-43,1631,8078,-19,-58,-20
0.041517,-51,1631,8043,100,-77,-32
0.041656,-63,1639,8087,44,-90,-20
0.041796,-77,1637,8059,56,-52,-7
0.041935,-90,1648,8051,25,-58,-13
0.042075,-35,1609,8031,56,-103,-32
0.042213,-75,1642,8106,81,-45,-45
0.042354,-80,1671,8136,6,-116,6
0.042492,-83,1665,8113,50,-58,-39
0.042631,-43,1677,8089,75,-26,-1
0.04277,-78,1650,8140,-44,-77,6
0.04291,-73,1595,8036,113,-122,-95
0.043049,-90,1603,8076,12,6,44
0.043188,-75,1618,8132,63,-141,-64
0.043332,-22,1655,8081,31,-33,-13
0.043468,-104,1651,8077,31,-64,-20
0.043607,-48,1633,8085,25,-64,6
0.043746,-47,1627,8094,100,-103,-77
0.043885,-98,1662,8074,-25,-39,31
0.044025,-84,1620,8109,75,-71,-39
0.044164,-95,1616,8132,37,-84,-39
0.044303,-70,1602,8089,69,-52,-1
0.044442,-55,1636,8084,19,-52,12
0.044582,-4,1625,8115,63,-116,-64
0.044721,-15,1640,8114,63,-58,-26
0.04486,-22,1669,8153,25,-52,-7
0.045,-60,1626,8115,25,-71,-26
0.045139,-38,1619,8075,75,-90,-20
0.045279,-36,1612,8107,37,-71,-39
0.045418,-52,1608,8069,75,-90,-13
0.045557,-98,1656,8062,6,-39,-26
0.045696,-50,1635,8128,50,-84,-7
0.045836,-38,1624,8113,31,-71,-51
0.045975,-68,1617,8056,75,-84,-39
0.046114,-69,1596,8052,12,-45,31
0.046254,-45,1601,8101,44,-90,-70
0.046393,-36,1686,8070,50,-20,-7
0.046532,-48,1639,8080,25,-116,-1
0.046672,-99,1660,8119,63,-39,-51
0.046811,-74,1559,8123,31,-71,-20
0.04695,-64,1618,8112,63,-71,-1
0.04709,-55,1618,8088,31,-52,-32
0.047229,-66,1615,8046,12,-77,-20
0.047368,-114,1657,8070,75,-77,-13
0.047507,-83,1656,8109,12,-84,-26
0.047647,-77,1656,8083,69,-45,-20
0.047786,-105,1649,8111,31,-71,-1
0.047926,-122,1681,8114,19,-71,-7
0.048065,-104,1604,8119,81,-96,-77
0.048204,-149,1638,8095,25,-52,18
0.048343,-12,1638,8091,50,-96,-39
0.048483,-75,1588,8126,37,-84,-39
0.048622,-59,1612,8020,37,-52,12
0.048761,-39,1633,8046,44,-58,-64
0.048901,-8,1679,8129,56,-71,37
0.04904,-49,1673,8136,19,-77,-39
0.049179,-54,1656,8133,44,-45,-26
0.049319,-69,1587,8090,56,-116,-32
0.049458,-45,1640,8126,25,-58,6
0.049597,-80,1620,8085,88,-90,-51
0.049737,-64,1686,8119,-13,-13,-13
0.049876,-76,1664,8082,12,-84,6
0.050015,-47,1646,8143,125,-103,-64
0.050155,-81,1639,8114,25,-26,6
0.050295,-45,1685,8103,31,-90,-39
0.050434,-89,1652,8090,56,-71,12
0.050574,-103,1666,8098,50,-84,-51
0.050711,-76,1633,8128,19,-71,6
0.050851,-37,1634,8137,63,-84,-32
0.05099,-36,1603,8100,69,-77,-45
0.051129,-76,1614,8123,-19,-39,31
0.051269,-93,1710,8115,81,-84,-51
0.051408,-173,1641,8110,81,-64,-7
0.051548,-117,1597,8085,-7,-64,-39
0.051687,-110,1612,8060,69,-77,37
0.051827,-83,1624,8071,44,-84,-58
0.051966,-45,1660,8058,31,-58,-20
0.052105,-146,1618,8064,31,-71,-13
0.052244,-99,1642,8152,100,-58,-32
0.052384,-104,1640,8036,0,-58,18
0.052523,-136,1677,8071,63,-77,-45
0.052662,-118,1622,8083,50,-109,-20
0.052801,-79,1670,8084,25,-13,-13
0.052941,-45,1679,8105,69,-90,-39
0.05308,-69,1640,8124,31,-84,-20
0.053221,-71,1631,8126,25,-71,6
0.053359,-45,1678,8065,19,-26,-45
0.0535,-64,1659,8078,81,-116,-1
0.053637,-26,1678,8116,6,-64,-26
0.053777,-103,1703,8050,63,-71,-20
0.053916,-50,1695,8104,-7,-39,-32
0.054055,-53,1652,8083,50,-109,-7
0.054195,-38,1649,8113,50,-26,-7
0.054334,-61,1676,8160,56,-90,-39
0.054475,-21,1678,8074,19,-64,-7
0.054612,-70,1635,8147,63,-71,-7
0.054754,-75,1627,8097,25,-84,-58
0.054891,-39,1590,8070,25,-64,-1
0.055031,-22,1581,8111,25,-64,-26
0.05517,-70,1595,8104,88,-58,-45
0.055309,-37,1668,8158,37,-77,6
0.055449,-17,1660,8129,44,-71,-45
0.055588,-61,1606,8102,25,-52,-20
0.055729,-49,1641,8117,63,-77,-39
0.055867,-54,1680,8114,50,-58,12
0.056006,-112,1620,8127,19,-52,-32
0.056145,-94,1615,8111,63,-109,-26
0.056285,-101,1670,8101,25,-58,25
0.056424,-120,1690,8106,69,-45,-70
0.056563,-46,1671,8075,37,-96,-26
0.056703,-100,1649,8089,50,-71,6
0.056842,-68,1657,8060,12,-90,-45
0.056981,-71,1640,8065,44,-52,12
0.057121,-103,1672,8089,75,-84,-64
0.05726,-69,1684,8064,6,-64,-7
0.057399,-103,1654,8036,63,-33,12
0.057538,-107,1652,8070,56,-116,-51
0.057678,-117,1653,8049,25,-52,12
0.057817,-60,1660,8111,56,-58,-26
0.057956,-48,1630,8095,25,-71,-13
0.058096,-57,1662,8113,88,-84,-39
0.058235,-79,1624,8082,19,-77,-20
0.058376,-80,1643,8090,63,-64,-13
0.058514,-48,1571,8107,25,-52,-32
0.058653,-61,1611,8116,50,-45,-1
0.058792,-87,1611,8110,56,-116,-39
0.058932,-71,1566,8137,25,-33,-20
0.059071,-28,1655,8127,44,-64,6
0.05921,-17,1620,8147,56,-90,-26
0.05935,-27,1645,8105,56,-90,-39
0.059489,-46,1677,8133,31,-71,6
0.059628,-28,1616,8095,19,-33,-39
0.059769,-49,1648,8185,69,-96,-39
0.059908,-40,1650,8132,50,-77,-7
0.060046,-74,1614,8174,37,-71,-7
0.060185,-57,1646,8165,37,-64,-51
0.060325,-34,1666,8191,75,-84,-13
0.060465,-63,1701,8140,-13,-58,-7
0.060604,-110,1659,8128,44,-96,-20
0.060743,-90,1603,8140,63,-64,-45
0.060882,-88,1623,8117,37,-64,-1
0.061021,-68,1606,8134,56,-77,-39
0.06116,-98,1644,8089,25,-52,-32
0.0613,-65,1657,8094,56,-96,-13
0.061439,-53,1619,8096,31,-71,6
0.061579,-66,1615,8069,56,-71,-51
0.061718,-62,1612,8020,44,-58,-1
0.061857,-80,1614,8058,63,-84,-39
0.061998,-24,1565,8060,0,-84,-1
0.062136,-100,1603,8042,69,-58,-20
0.062275,-85,1686,8049,37,-64,-58
0.062415,-79,1641,8048,44,-71,31
0.062556,-93,1650,8098,19,-64,-39
0.062693,-61,1656,8059,44,-71,6
0.062832,-84,1607,8032,69,-52,-45
0.062972,-56,1684,8006,44,-103,-20
0.063111,-64,1661,8067,6,-39,-20
0.063252,-111,1613,8080,50,-39,18
0.063391,-111,1674,8048,63,-109,-51
0.063529,-89,1692,8048,25,-33,-51
0.063668,-66,1686,8074,25,-52,50
0.063809,-103,1682,8131,44,-71,-58
0.063947,-60,1630,8131,50,-77,-58
0.064086,-26,1652,8155,50,-52,18
0.064225,-99,1702,8132,6,-77,-26
0.064365,-100,1608,8120,63,-64,-26
0.064504,-79,1674,8179,12,-71,-20
0.064644,-44,1651,8189,56,-71,-1
0.064783,-50,1637,8136,56,-96,-20
0.064922,-15,1625,8146,31,-58,-45
0.065062,-28,1616,8179,31,-71,25
0.065201,-36,1625,8165,31,-90,-58
0.06534,-45,1655,8166,69,-45,12
0.06548,-69,1641,8173,6,-96,-39
0.065619,-56,1664,8178,56,-58,-7
0.065758,-27,1608,8106,25,-77,-20
0.065898,-49,1639,8124,94,-103,-32
0.066037,-33,1597,8118,12,-45,-20
0.066176,-50,1598,8096,56,-77,-20
0.066315,-82,1631,8059,37,-77,-32
0.066455,-65,1634,8062,56,-64,-7
0.066594,-62,1603,8015,88,-84,-58
0.066734,-35,1657,8047,19,-45,18
0.066873,-99,1656,8095,50,-90,-20
0.067012,-128,1632,8054,50,-58,-32
0.067151,-150,1649,8024,50,-109,-51
0.067291,-70,1602,8055,50,-45,6
0.06743,-107,1633,8069,0,-64,-1
0.067569,-104,1647,8047,69,-77,-64
0.067709,-134,1656,8064,69,-84,-1
0.067848,-87,1633,8058,0,-52,-13
0.067987,-70,1638,8083,12,-64,-1
0.068127,-53,1686,8039,107,-96,-89
0.068266,-70,1690,8070,31,-52,37
0.068405,-85,1664,8130,44,-84,-32
0.068545,-71,1660,8101,0,-26,18
0.068684,-71,1641,8129,75,-116,-70
0.068823,-69,1620,8142,19,-58,6
0.068962,-75,1692,8104,69,-58,-20
0.069102,-39,1620,8128,19,-77,-32
0.069241,-57,1650,8114,31,-84,-1
0.06938,-75,1649,8108,44,-52,-32
0.06952,-82,1596,8182,69,-109,-1
0.069659,-51,1594,8139,19,-33,-51
0.069799,-13,1654,8140,75,-71,-32
0.069938,-34,1598,8149,25,-96,-1
0.070078,-83,1603,8100,37,-26,6
0.070216,-39,1679,8112,37,-96,-64
0.070356,-31,1665,8156,56,-77,31
0.070495,-19,1593,8137,31,-64,-39
0.070634,-80,1637,8061,69,-64,-26
0.070773,-90,1588,8131,56,-103,-7
0.070913,-83,1649,8115,25,-39,-32
0.071052,-75,1657,8113,69,-90,-39
0.071191,-38,1584,8100,37,-77,-1
0.071331,-20,1689,8050,31,-64,-20
0.07147,-118,1634,8081,63,-71,-39
0.071609,-94,1693,8048,31,-71,-20
0.07175,-58,1648,8081,31,-52,18
0.071888,-100,1644,8068,75,-122,-39
0.072028,-112,1669,8088,-25,-33,-32
0.072167,-110,1733,8020,94,-52,-7
0.072306,-123,1675,8097,25,-96,-39
0.072444,-105,1677,8093,56,-96,-20
0.072586,-40,1712,8071,6,-33,-7
0.072724,-90,1664,8092,75,-64,-13
0.072863,-91,1650,8136,19,-58,-39
0.073003,-80,1658,8102,75,-116,-26
0.073144,-55,1666,8102,6,-39,-20
0.073284,-64,1644,8104,37,-52,-32
0.073421,-76,1612,8146,63,-103,-32
0.07356,-75,1584,8110,19,-58,-7
0.0737,-37,1609,8117,88,-71,-20
0.073839,-71,1623,8145,-13,-64,-13
0.073978,-30,1645,8191,63,-71,-58
0.074117,-36,1653,8149,50,-58,25
0.074257,-69,1608,8149,44,-90,-51
0.074398,-24,1577,8126,25,-84,-32
0.074535,13,1592,8110,37,-71,25
0.074674,0,1623,8100,56,-52,-39
0.074814,-66,1648,8143,44,-84,-32
0.074953,-4,1615,8131,50,-52,6
0.075093,-38,1649,8166,69,-103,-20
0.075232,-104,1634,8148,31,-84,-70
0.075371,-38,1613,8106,63,-64,25
0.075511,-52,1645,8109,19,-52,-64
0.07565,-55,1659,8116,56,-77,-13
0.075789,-56,1675,8059,25,-77,-7
0.075928,-39,1651,8065,69,-39,-20
0.076068,-66,1661,8090,31,-141,-39
0.076207,-78,1688,8088,63,-26,-26
0.076346,-93,1659,8091,0,-64,-13
0.076486,-84,1675,8091,63,-103,-26
0.076625,-150,1666,8067,44,-71,-13
0.076764,-94,1640,8105,56,-77,-26
0.076904,-37,1684,8064,37,-77,-7
0.077043,-109,1687,8018,81,-77,-45
0.077185,-74,1664,8084,0,-58,-1
0.077322,-107,1622,8111,75,-84,-45
0.077461,-109,1576,8125,37,-45,-13
0.0776,-94,1620,8118,6,-96,12
0.07774,-66,1629,8073,100,-96,-83
0.077879,-17,1660,8127,0,-64,18
0.078018,-52,1630,8120,37,-64,-26
0.078158,-112,1691,8080,37,-103,-39
0.078297,-63,1639,8063,50,-39,-13
0.078436,-42,1594,8037,37,-90,-20
0.078576,-89,1619,8090,56,-71,-39
0.078715,-81,1623,8069,12,-77,12
0.078854,-64,1669,8110,37,-52,-20
0.078994,-49,1627,8143,63,-96,-51
0.079133,-13,1647,8110,6,-64,18
0.079272,-91,1662,8052,63,-64,-51
0.079411,-29,1659,8081,50,-52,-13
0.079551,-46,1637,8153,56,-96,-7
0.07969,-84,1615,8148,19,-52,-20
0.079829,-77,1641,8132,94,-128,-39
0.079969,-84,1648,8165,0,-52,-7
0.080108,-39,1602,8147,44,-58,-26
0.080247,-70,1651,8132,44,-58,50
0.080387,-89,1622,8120,75,-103,-108
0.080526,-52,1678,8070,37,-64,-1
0.080665,-74,1677,8112,37,-58,-13
0.080804,-116,1658,8163,75,-103,-13
0.080944,-35,1628,8124,12,-71,-26
0.081083,-64,1612,8086,69,-45,-20
0.081222,-113,1652,8091,56,-109,-32
0.081362,-81,1655,8070,-13,-33,-1
0.081501,-67,1636,8084,81,-58,-13
0.08164,-78,1582,8118,37,-84,-39
0.08178,-69,1642,8110,56,-84,-7
0.08192,-38,1648,8057,25,-64,-39
0.082058,-34,1659,8089,63,-64,-1
0.082198,-54,1674,8081,50,-71,-32
0.082339,-73,1657,8099,44,-84,-1
0.082476,-14,1655,8072,6,-52,-45
0.082616,-47,1564,8088,88,-77,-13
0.082755,-71,1673,8107,0,-90,-13
0.082898,-101,1661,8133,94,-64,-32
0.083034,-75,1631,8094,37,-96,-39
0.083173,-96,1656,8103,63,-45,-13
0.083312,-132,1673,8110,44,-77,-7
0.083452,-104,1634,8104,-7,-64,-32
0.083591,-24,1602,8041,75,-90,-7
0.08373,-77,1624,8044,25,-103,-26
0.08387,-87,1639,8057,81,-45,-1
0.084009,-39,1578,8124,37,-96,-70
0.084148,-41,1621,8090,0,-45,37
0.084287,-110,1638,8105,63,-77,-45
0.084427,-92,1639,8082,69,-71,-39
0.084566,-70,1652,8096,-7,-45,25
0.084705,-110,1644,8115,44,-84,-32
0.084845,-80,1643,8096,88,-64,-7
0.084984,-100,1653,8085,12,-109,-39
0.085123,-89,1670,8090,56,-52,-26
0.085263,-53,1695,8051,-7,-64,-7
0.085402,-49,1681,8131,94,-90,-1
0.085541,-77,1681,8109,31,-58,-39
0.085681,-81,1690,8108,37,-71,-20
0.08582,-62,1622,8094,69,-90,-20
0.085959,-79,1625,8120,0,-13,6
0.086099,-20,1613,8101,50,-116,-39
0.086238,-28,1635,8088,75,-71,-45
0.086377,-82,1644,8070,25,-90,-7
0.086517,-110,1639,8128,50,-33,-13
0.086656,-67,1672,8119,44,-96,-13
0.086795,-25,1706,8105,12,-84,-13
0.086934,-53,1671,8108,100,-71,-39
0.087074,-68,1634,8108,6,-52,-20
0.087213,-68,1683,8061,88,-103,-20
0.087352,-64,1656,8068,-7,-58,12
0.087493,-89,1620,8144,63,-71,-58
0.087632,-72,1626,8105,31,-52,-1
0.08777,-42,1656,8082,56,-84,-45
0.08791,-53,1660,8103,12,-52,12
0.088049,-126,1610,8070,63,-96,-32
0.088188,-140,1634,8053,69,-52,-20
0.088328,-115,1635,8050,19,-58,-20
0.088467,-53,1597,8048,88,-90,-20
0.088606,-90,1575,8045,25,-77,-32
0.088746,-99,1674,8086,12,-33,12
0.088885,-122,1646,8045,88,-96,-39
0.089024,-75,1667,8080,19,-84,-26
0.089164,-184,1630,8016,63,-45,-1
0.089303,-160,1619,8120,44,-109,-20
0.089442,-88,1656,8079,63,-58,-51
0.089582,-72,1623,8078,6,-77,12
0.089721,-70,1670,8081,56,-64,-32
0.08986,-102,1642,8061,31,-90,6
0.089999,-67,1647,8093,94,-84,-58
0.090139,-54,1607,8131,-13,-45,-13
0.090278,-20,1656,8107,63,-103,-13
0.090417,-18,1660,8145,50,-64,-13
0.090557,-79,1652,8110,37,-103,-51
0.090696,-57,1621,8139,31,-52,6
0.090835,-38,1631,8132,56,-64,-39
0.090975,-35,1647,8120,31,-71,-13
0.091114,-71,1680,8073,69,-77,-26
0.091253,-23,1629,8099,37,-39,-13
0.091393,-65,1584,8106,63,-109,-26
0.091532,-68,1579,8157,6,-77,-20
0.091671,-76,1620,8157,25,-84,-20
0.091811,-54,1660,8074,50,-33,-39
0.09195,-85,1708,8060,75,-96,-13
0.092089,-61,1606,8070,50,-77,-20
0.092229,-153,1635,8146,44,-52,-13
0.092368,-92,1634,8091,31,-64,-1
0.092507,-69,1644,8057,37,-71,-77
0.092647,-59,1609,8072,44,-77,18
0.092786,-64,1625,8098,75,-77,-51
0.092925,-74,1657,8088,81,-39,-13
0.093065,-64,1648,8091,-38,-116,-1
0.093204,-93,1686,8064,107,-45,-39
0.093343,-84,1632,8066,0,-52,-13
0.093482,-102,1636,8016,69,-96,-26
0.093622,-98,1637,8043,50,-77,-39
0.093761,-94,1684,8094,75,-96,6
0.0939,-87,1671,8127,31,-52,-58
0.09404,-105,1636,8075,12,-58,12
0.094179,-65,1671,8082,75,-71,-39
0.094318,-105,1672,8080,19,-84,12
0.094458,-58,1665,8105,75,-90,-51
0.094597,-70,1638,8074,6,-64,-20
0.094736,-66,1661,8111,63,-84,-7
0.094876,-107,1677,8058,31,-52,-26
0.095015,-42,1638,8092,31,-64,-13
0.095154,-74,1595,8116,50,-77,-13
0.095294,-45,1683,8077,25,-84,-26
0.095433,-32,1604,8146,31,-52,-1
0.095572,-21,1583,8148,81,-90,-26
0.095712,-53,1586,8112,6,-33,-39
0.095851,1,1619,8053,56,-128,-13
0.09599,-59,1640,8073,37,-7,-7
0.096131,-31,1682,8128,50,-122,-26
0.096269,-56,1619,8080,56,6,-1
0.096408,-103,1676,8117,31,-135,-39
0.096547,-77,1596,8133,63,-64,-45
0.096687,-103,1643,8116,25,-58,6
0.096826,-118,1675,8098,44,-77,-45
0.096965,-72,1622,8116,56,-71,-13
0.097105,-48,1661,8088,12,-39,6
0.097244,-69,1700,8064,88,-116,-39
0.097383,-93,1751,8072,25,-45,-32
0.097523,-101,1685,8091,31,-90,-1
0.097662,-30,1674,8097,94,-96,-64
0.097801,-73,1661,8077,25,-39,-1
0.097941,-71,1647,8114,12,-58,-7
0.09808,-65,1669,8107,81,-109,-58
0.098219,-128,1692,8121,37,-26,25
0.098359,-88,1689,8055,50,-103,-70
0.098498,-7,1637,8051,19,-45,25
0.098637,-92,1650,8080,44,-58,-20
0.098777,-84,1627,8109,44,-103,-51
0.098916,-75,1650,8076,69,-45,-20
0.099055,-7,1651,8047,31,-77,6
0.099195,-50,1637,8027,50,-52,-20
0.099334,-30,1629,8068,50,-77,-26
0.099473,-14,1702,8058,31,-71,-13
0.099612,-59,1628,8047,75,-84,-20
0.099752,-82,1662,8074,0,-58,-20
0.099891,-62,1619,8104,75,-77,-39
0.10003,-53,1616,8123,44,-71,18
0.10017,-34,1643,8110,44,-58,-45
0.100309,-70,1715,8086,19,-96,-20
0.100448,-110,1637,8106,94,-90,-32
0.100588,-63,1645,8093,12,-58,6
0.100727,6,1676,8105,44,-77,-64
0.100866,-70,1650,8113,31,-58,-13
0.101006,-74,1695,8140,63,-96,-13
0.101145,-83,1622,8115,25,-33,-26
0.101284,-43,1635,8146,56,-116,-13
0.101424,-42,1631,8100,69,-33,-7
0.101563,-64,1623,8086,31,-128,-64
0.101702,-63,1648,8089,44,-45,37
0.101842,-36,1635,8100,37,-58,-45
0.101981,-98,1631,8151,31,-71,-7
0.10212,-24,1658,8149,75,-84,-39
0.10226,-91,1647,8092,6,-64,-7
0.102399,-40,1658,8100,50,-84,-26
0.102538,-30,1673,8099,69,-64,-39
0.102677,-43,1632,8106,25,-77,12
0.102817,-57,1652,8082,69,-71,-45
0.102956,-76,1684,8072,25,-71,-1
0.103095,-36,1697,8080,44,-52,-39
0.103235,-89,1670,8079,69,-96,-7
0.103376,-71,1646,8084,19,-77,-26
0.103513,-42,1640,8093,50,-77,-1
0.103653,-88,1609,8071,56,-52,-39
0.103792,-63,1664,8046,19,-84,-1
0.103931,-113,1628,8075,50,-71,-45
0.104071,-58,1643,8050,75,-64,-32
0.10421,-24,1649,8079,6,-58,-7
0.104349,-64,1600,8066,69,-96,-39
0.104489,-46,1668,8047,19,-26,25
0.10463,-38,1645,8081,75,-103,-51
0.104767,-34,1664,8039,19,-77,-39
0.104907,-87,1606,8083,63,-45,-13
0.105046,-67,1661,8090,19,-90,-1
0.105185,-67,1657,8161,75,-58,-39
0.105325,-92,1684,8142,37,-96,-32
0.105464,-87,1628,8079,37,-45,18
0.105603,-98,1620,8125,56,-90,-77
0.105743,-38,1609,8073,19,-58,25
0.105882,-21,1616,8124,56,-90,-58
0.106021,-64,1577,8138,12,-52,12
0.10616,-53,1663,8110,81,-96,-32
0.1063,-8,1640,8106,25,-77,-20
0.106439,-35,1593,8092,37,-52,-1
0.106578,-61,1630,8130,81,-96,-39
0.106718,-38,1660,8100,12,-58,-51
0.106857,-68,1618,8087,25,-96,31
0.106996,-37,1608,8117,100,-64,-64
0.107136,-67,1595,8050,-7,-64,25
0.107275,-74,1626,8067,69,-71,-39
0.107414,-58,1635,8085,19,-96,-39
0.107554,-66,1650,8114,75,-71,6
0.107693,-55,1630,8039,50,-96,-64
0.107832,-107,1657,8039,37,-45,31
0.107972,-104,1700,8081,50,-109,-77
0.108111,-64,1629,8060,12,-39,18
0.10825,-52,1628,8098,94,-90,-45
0.10839,-77,1693,8124,6,-84,-13
0.108529,-52,1721,8132,50,-45,-26
0.108668,-78,1679,8106,25,-77,-20
0.108808,-54,1667,8136,69,-84,-20
0.108947,-85,1645,8146,63,-71,-7
0.109086,-43,1620,8088,19,-64,-39
0.109225,-25,1689,8093,50,-77,-1
0.109365,-76,1676,8089,31,-39,-32
0.109504,-57,1610,8085,63,-103,12
0.109643,-53,1628,8100,50,-64,-51
0.109783,-38,1618,8098,19,-77,-7
0.109922,-90,1646,8080,50,-52,-32
0.110062,-73,1672,8050,69,-77,-1
0.110201,-66,1673,8040,0,-96,-58
0.11034,-56,1632,8106,69,-52,-7
0.110487,-51,1639,8073,44,-52,-26
0.110619,-99,1663,8049,37,-84,-13
0.110758,-48,1617,8076,81,-71,-58
0.110897,-90,1641,8119,6,-45,31
0.111038,-103,1640,8139,50,-96,-45
0.111176,-77,1694,8121,37,-45,-20
0.11132,-39,1683,8127,50,-109,-20
0.111455,-99,1638,8122,19,-58,-7
0.111594,-144,1677,8086,75,-39,-45
0.111735,-92,1625,8119,0,-52,6
0.111873,-37,1681,8127,81,-122,-64
0.112012,-75,1632,8062,-25,-20,6
0.112151,-69,1655,8083,94,-116,-45
0.11229,-59,1625,8097,19,-26,-26
0.11243,-24,1603,8123,63,-109,6
0.112569,-45,1619,8125,31,-52,-32
0.112709,-63,1606,8100,25,-90,-26
0.112848,-92,1642,8077,44,-39,-7
0.112987,-60,1692,8011,31,-109,-45
0.113126,-35,1632,8059,75,-58,-26
0.113266,-43,1672,8111,19,-64,-32
0.113405,-65,1663,8066,56,-58,12
0.113545,-89,1652,8062,25,-52,-39
0.113685,-56,1629,8095,75,-103,-45
0.113823,-38,1671,8062,12,-64,-7
0.113962,-74,1701,8100,69,-64,-7
0.114102,-60,1676,8073,6,-71,-1
0.114241,-98,1667,8104,81,-96,-58
0.11438,-84,1609,8091,44,-45,-26
0.114519,-34,1658,8092,50,-96,-13
0.114659,-59,1609,8088,44,-52,18
0.114798,-75,1643,8103,37,-103,-26
0.114937,-104,1656,8079,44,-33,-32
0.115079,-46,1661,8134,31,-103,-26
0.115216,-54,1666,8116,69,-84,-64
0.115355,-31,1640,8135,25,-26,56
0.115495,-87,1654,8108,56,-128,-83
0.115634,-63,1641,8051,44,-20,-1
0.115773,-45,1650,8030,31,-90,-32
0.115913,-70,1671,8089,19,-84,12
0.116052,-103,1634,8118,63,-52,-39
0.116191,-30,1612,8076,50,-109,-51
0.116331,-87,1657,8063,31,-20,6
0.11647,-63,1654,8127,12,-96,6
0.116609,-45,1695,8130,75,-64,-89
0.116749,-60,1673,8104,31,-45,44
0.116888,-44,1658,8137,50,-96,-39
0.117027,-91,1637,8135,75,-96,-26
0.117167,-90,1678,8077,6,-45,-26
0.117306,-78,1641,8118,44,-71,-39
0.117445,-65,1672,8138,50,-58,6
0.117585,-61,1662,8126,19,-64,-32
0.117724,-37,1644,8128,75,-116,-51
0.117863,-68,1615,8088,37,-20,12
0.118003,-90,1661,8103,25,-109,-20
0.118142,-17,1631,8102,63,-64,-26
0.118281,-21,1705,8048,44,-64,-51
0.118421,-84,1621,8113,19,-58,25
0.11856,-98,1688,8109,88,-90,-39
0.118699,-61,1657,8071,19,-52,-26
0.118839,-77,1666,8096,37,-84,-32
0.118978,-104,1681,8044,56,-71,18
0.119117,-80,1673,8023,12,-71,-45
0.119256,-120,1609,8083,107,-84,-39
0.119396,-92,1652,8126,6,-90,-13
0.119535,-72,1673,8037,44,-20,37
0.119674,-61,1613,8078,44,-109,-64
0.119814,-93,1621,8072,50,-33,-13
0.119953,-62,1568,8065,50,-122,-39
0.120092,-84,1638,8026,19,-33,-13
0.120232,-9,1707,8054,69,-64,6
0.120371,-31,1699,8109,69,-90,-77
0.12051,-32,1648,8074,31,-71,18
0.12065,-27,1688,8074,0,-71,-7
0.120789,-69,1683,8094,75,-64,-58
0.120928,-34,1679,8084,44,-58,-13
0.121068,-50,1670,8160,31,-71,12
0.121207,-46,1680,8119,50,-64,-45
0.121346,-48,1660,8099,63,-71,-20
0.121486,-43,1646,8123,63,-90,-20
0.121625,-71,1619,8141,12,-58,-13
0.121764,-32,1608,8154,63,-71,-7
0.121903,-78,1611,8131,19,-45,-7
0.122043,-64,1620,8131,81,-128,-77
0.122182,-126,1694,8100,31,-52,37
0.122321,-60,1641,8098,19,-26,-26
0.122461,-30,1663,8104,100,-135,-77
0.1226,-75,1619,8114,19,-39,31
0.122739,-75,1633,8064,63,-90,-58
0.122879,-38,1698,8080,25,-90,6
0.123018,-41,1587,8075,19,-39,-13
0.123157,-56,1627,8044,119,-103,-51
0.123297,-64,1633,8042,-13,-33,-1
0.123436,-95,1624,8027,75,-84,-1
0.123575,-90,1674,8042,37,-58,-51
0.123715,-67,1684,8085,12,-90,-26
0.123854,-80,1688,8041,69,-64,-26
0.123993,-88,1615,8038,31,-64,-7
0.124133,-84,1645,8020,81,-71,-7
0.124272,-110,1661,8011,37,-96,-64
0.124411,-73,1633,8007,31,-45,44
0.124551,-74,1621,7996,63,-90,-58
0.12469,-50,1654,7978,44,-58,-7
0.124829,-90,1664,8045,37,-64,-13
0.124968,-65,1653,8107,44,-64,-39
0.125108,-85,1686,8130,44,-103,12
0.125248,-74,1703,8206,19,-33,-58
0.125386,-141,1677,8246,56,-116,-1
0.125526,-139,1774,8312,31,-45,-20
0.125665,-142,1810,8305,31,-52,-20
0.125804,-90,1766,8352,69,-77,-45
0.125944,-44,1741,8472,37,-77,-20
0.126083,-82,1691,8501,31,-77,-20
0.126222,-55,1628,8485,25,-45,18
0.126362,-40,1635,8439,94,-122,-51
0.126501,-24,1654,8396,31,-33,-20
0.12664,16,1602,8333,44,-71,-7
0.12678,39,1541,8318,37,-58,-39
0.126921,76,1476,8205,75,-96,12
0.127058,67,1449,8104,12,-26,-58
0.127198,0,1505,7982,56,-84,6
0.127339,9,1474,7888,44,-71,-39
0.127476,51,1524,7818,44,-45,-51
0.127615,71,1532,7786,63,-90,-1
0.127755,12,1514,7765,37,-90,-13
0.127895,-58,1503,7722,63,-39,-45
0.128034,-120,1565,7736,50,-103,-13
0.128173,-164,1643,7731,0,-33,-7
0.128312,-157,1672,7696,94,-90,-51
0.128451,-218,1717,7752,-25,-71,-1
0.128591,-225,1776,7792,44,-52,6
0.128731,-302,1776,7795,69,-77,-58
0.12887,-294,1758,7861,37,-103,-32
0.129009,-321,1752,7901,6,-7,-1
0.129148,-291,1698,7937,94,-109,-7
0.129291,-269,1776,7997,19,-64,-20
0.129427,-169,1808,8021,44,-84,-13
0.129569,-180,1742,8056,31,-52,-26
0.129707,-154,1772,8062,56,-71,-7
0.129846,-155,1754,8102,19,-71,-20
0.129984,-80,1715,8151,50,-58,-39
0.130123,-55,1675,8178,19,-64,-13
0.130263,-2,1718,8293,81,-77,-13
0.130402,21,1745,8334,0,-77,-20
0.130542,47,1684,8461,56,-33,-13
0.130681,98,1628,8479,19,-109,-51
0.13082,90,1585,8529,44,-45,-7
0.130959,89,1601,8620,31,-77,-32
0.131098,137,1570,8606,94,-103,-13
0.131238,153,1506,8534,-19,-13,-20
0.131377,185,1513,8550,63,-109,-1
0.131516,137,1458,8463,44,-58,-77
0.131656,173,1396,8432,63,-96,6
0.131795,191,1442,8328,12,-58,-39
0.131934,181,1497,8185,75,-64,-26
0.132074,112,1530,8128,56,-33,18
0.132213,134,1516,8146,63,-128,-83
0.132352,53,1544,8066,12,-33,18
0.132492,-37,1586,7939,75,-109,-51
0.132631,-125,1575,7914,37,-33,-1
0.13277,-171,1638,7884,25,-103,-45
0.13291,-179,1714,7942,69,-64,-7
0.133049,-252,1759,7987,69,-96,-58
0.133188,-333,1736,7954,25,-64,-7
0.133328,-334,1669,7874,37,-39,6
0.133467,-399,1705,7887,63,-122,-70
0.133606,-387,1755,7883,31,-33,31
0.133746,-364,1742,7864,50,-90,-32
0.133885,-369,1808,7810,25,-45,-13
0.134024,-313,1837,7776,63,-109,-20
0.134164,-331,1787,7820,44,-26,-7
0.134303,-262,1735,7808,44,-96,-51
0.134444,-194,1697,7844,56,-52,-13
0.134581,-125,1657,7877,19,-103,25
0.134722,-51,1579,7878,37,-64,-32
0.13486,-13,1594,7957,44,-77,-32
0.134999,-10,1582,7978,63,-84,-20
0.13514,53,1552,7989,-19,-26,6
0.135281,31,1577,8023,75,-116,-32
0.135417,81,1559,8099,50,-71,-26
0.135557,100,1588,8190,37,-58,-1
0.135696,82,1529,8276,63,-96,-20
0.135836,171,1551,8303,6,-39,-32
0.135975,209,1554,8425,19,-84,-13
0.136116,113,1569,8436,44,-71,-20
0.136253,162,1623,8496,50,-71,-26
0.136392,154,1560,8497,44,-71,-39
0.136532,135,1542,8520,75,-58,12
0.136671,119,1558,8530,-7,-58,-58
0.136811,115,1559,8473,63,-116,-1
0.13695,64,1578,8472,56,-52,-32
0.13709,60,1606,8399,25,-58,-26
0.137229,21,1640,8325,94,-77,-13
0.137368,-86,1629,8288,25,-71,-20
0.137509,-91,1648,8237,56,-64,-39
0.137647,-94,1611,8143,12,-58,6
0.137786,-50,1612,8060,100,-103,-51
0.137926,-136,1622,7994,-25,-39,6
0.138064,-108,1618,7909,81,-71,-20
0.138204,-183,1638,7829,37,-45,-26
0.138344,-237,1616,7805,50,-116,-51
0.138482,-223,1630,7749,44,-52,6
0.138622,-231,1685,7712,37,-96,-32
0.138761,-278,1649,7725,37,-39,12
0.1389,-239,1687,7804,50,-103,-64
0.13904,-252,1707,7787,63,-52,6
0.139179,-280,1770,7779,-7,-64,-45
0.139318,-277,1700,7759,94,-90,-7
0.139457,-266,1678,7821,50,-77,-32
0.139597,-153,1691,7796,19,-90,-7
0.139736,-189,1689,7818,50,-39,25
0.139875,-216,1606,7936,75,-116,-70
0.140015,-163,1660,8018,0,-58,25
0.140154,-140,1706,8048,75,-64,-39
0.140293,-82,1680,8058,31,-45,-20
0.140433,-93,1662,8088,69,-96,-20
0.140572,-33,1660,8181,12,-64,12
0.140711,-20,1684,8226,81,-77,-64
0.140852,-17,1675,8285,-7,-58,37
0.140991,5,1638,8303,88,-116,-70
0.14113,59,1698,8389,6,12,31
0.141269,58,1671,8472,63,-147,-64
0.141408,36,1596,8480,19,-13,31
0.141548,67,1558,8562,63,-103,-70
0.141688,96,1556,8484,50,-52,6
0.141826,49,1563,8512,6,-109,-32
0.141965,43,1596,8461,81,-58,-32
0.142105,85,1573,8368,50,-64,-7
0.142246,80,1544,8316,19,-39,-1
0.142383,76,1514,8268,31,-84,-51
0.142523,89,1499,8194,75,-39,-20
0.142664,63,1539,8136,56,-109,-26
0.142801,-60,1585,8066,25,-26,-7
0.142944,-46,1585,7985,88,-109,-26
0.14308,-13,1561,7885,6,-13,6
0.143219,-65,1571,7880,69,-109,-64
0.143359,-55,1576,7815,31,-52,12
0.143498,-210,1660,7800,88,-90,-51
0.143638,-216,1631,7854,-25,-77,-51
0.143777,-225,1716,7856,81,-64,25
0.143917,-291,1741,7838,56,-77,-64
0.144055,-294,1779,7796,25,-58,-1
0.144195,-253,1783,7850,94,-71,-70
0.144334,-338,1708,7850,-13,-77,31
0.144473,-303,1690,7842,63,-64,-45
0.144614,-277,1719,7826,44,-52,-26
0.144752,-226,1734,7896,50,-96,6
0.144891,-174,1732,7863,56,-77,-45
0.145032,-174,1737,7889,-25,-84,25
0.14517,-192,1725,7875,69,-45,-45
0.145309,-165,1727,7991,56,-77,-7
0.145448,-106,1689,8066,50,-71,-26
0.145588,-38,1652,8126,-19,-58,-1
0.145728,39,1627,8213,100,-71,-32
0.145867,21,1640,8242,0,-71,-1
0.146006,32,1554,8256,69,-71,-32
0.146147,41,1579,8332,37,-90,-1
0.146285,75,1619,8367,19,-39,-7
0.146423,164,1571,8348,63,-103,-45
0.146563,153,1529,8360,50,-71,-39
0.146702,144,1544,8338,0,-58,25
0.146841,156,1486,8358,100,-103,-83
0.146981,117,1518,8307,-19,-26,37
0.14712,195,1543,8296,81,-109,-58
0.147259,164,1491,8240,44,-58,6
0.147399,95,1532,8204,56,-77,-13
0.147539,141,1596,8217,0,-71,-58
0.147679,79,1623,8177,132,-52,-1
0.147817,60,1604,8154,-38,-52,-26
0.147956,-68,1603,8161,132,-122,-58
0.148096,-72,1612,8087,-32,-33,44
0.148241,-141,1640,8039,113,-96,-95
0.148378,-182,1645,7984,6,-39,12
0.148513,-215,1696,7982,63,-77,-32
0.148653,-241,1753,7997,37,-71,-26
0.148792,-217,1727,7994,75,-77,-32
0.148932,-281,1674,7957,37,-96,6
0.149071,-246,1705,8004,56,-58,-39
0.14921,-307,1694,8027,37,-77,12
0.149349,-300,1804,7990,56,-103,-64
0.149489,-254,1740,7980,56,-71,-13
0.149628,-257,1721,7985,6,-64,12
0.149767,-255,1678,7965,56,-77,-64
0.149906,-157,1712,7960,31,-45,31
0.150046,-150,1616,7975,69,-84,-51
0.150185,-108,1605,7963,44,-77,12
0.150325,-82,1614,8003,44,-39,-20
0.150464,-40,1598,7987,31,-84,-32
0.150603,6,1630,8040,75,-52,-13
0.150743,34,1584,8067,-19,-71,-13
0.150882,-2,1553,8098,100,-71,-20
0.151021,32,1542,8138,25,-103,-58
0.15116,39,1578,8200,12,-33,62
0.1513,49,1579,8251,56,-96,-77
0.151439,57,1628,8259,37,-71,-1
0.151579,0,1604,8247,31,-64,-26
0.151718,33,1570,8239,75,-77,-26
0.151857,107,1602,8259,25,-71,-1
0.151996,76,1603,8307,50,-64,-77
0.152136,61,1637,8294,44,-96,6
0.152275,48,1616,8247,25,-45,-32
0.152414,12,1595,8217,69,-84,-26
0.152554,6,1625,8197,12,-45,-1
0.152693,6,1698,8146,75,-96,-32
0.152832,-32,1682,8146,37,-45,-20
0.152972,-95,1685,8124,12,-77,-39
0.153111,-56,1683,8103,94,-77,-1
0.15325,-65,1695,8123,19,-64,-51
0.15339,-59,1640,8032,31,-135,-32
0.153529,-84,1672,7993,81,-33,18
0.153668,-144,1684,8001,44,-90,-39
0.153808,-160,1639,7954,37,-52,-13
0.153947,-140,1676,7925,44,-96,-13
0.154086,-189,1661,7906,37,-39,-32
0.154226,-142,1639,7969,63,-84,-7
0.154365,-174,1620,7939,75,-96,-51
0.154504,-171,1647,7916,12,-33,6
0.154644,-122,1654,7923,31,-84,-32
0.154783,-160,1638,7895,69,-90,-32
0.154922,-86,1573,7904,19,-64,-1
0.155062,-88,1568,7951,44,-52,-39
0.155201,-110,1617,7993,88,-109,-32
0.15534,-99,1637,7977,-32,-58,12
0.15548,-51,1581,7973,100,-84,-51
0.155619,-106,1628,8006,19,-45,12
0.155758,-57,1621,8091,31,-77,-26
0.155897,-44,1604,8091,81,-64,-32
0.156037,-38,1590,8134,6,-122,6
0.156176,-22,1634,8195,69,-20,-45
0.156316,-13,1646,8211,6,-96,-1
0.156454,9,1579,8230,88,-77,-13
0.156594,-10,1634,8246,25,-84,-83
0.156733,-44,1639,8274,6,-77,50
0.156872,-4,1648,8291,94,-58,-51
0.157012,-10,1667,8271,37,-45,-13
0.157151,-55,1601,8351,44,-90,-26
0.15729,-17,1565,8308,25,-52,-1
0.15743,11,1576,8342,75,-52,-58
0.157569,-46,1657,8245,-7,-103,25
0.15771,-24,1628,8260,75,-52,-58
0.157848,-47,1602,8262,44,-84,-7
0.157987,-26,1604,8273,44,-64,-1
0.158128,27,1656,8202,25,-39,-26
0.158266,33,1656,8180,69,-116,-13
0.158405,-4,1611,8196,56,-71,-51
0.158544,-30,1635,8171,37,-58,-13
0.158684,-54,1630,8152,37,-71,-20
0.158824,-68,1658,8146,0,-58,-20
0.158962,-5,1642,8064,94,-84,-39
0.159102,-87,1594,8061,6,-90,-26
0.159242,-131,1673,8074,50,-26,-20
0.15938,-136,1631,7975,31,-71,-20
0.15952,-133,1628,7963,56,-96,-20
0.159659,-143,1660,7979,31,-52,-20
0.159798,-166,1609,7925,63,-84,-32
0.159938,-145,1593,7943,19,-33,-26
0.160077,-181,1651,7918,75,-128,-39
0.160217,-168,1691,7815,0,-13,18
0.160355,-81,1654,7849,69,-116,-77
0.160495,-120,1662,7885,25,-58,18
0.160634,-173,1665,7955,56,-71,-13
0.160774,-173,1724,7985,31,-96,-45
0.160913,-182,1688,8000,37,-71,-20
0.161052,-125,1641,8041,25,-33,-13
0.161191,-97,1708,8042,63,-122,-32
0.161331,-104,1646,8095,0,-26,-13
0.16147,-96,1590,8197,69,-71,-45
0.161609,-30,1569,8177,6,-84,31
0.161749,-48,1622,8153,69,-45,-58
0.161888,-49,1635,8164,50,-64,6
0.162027,-31,1612,8208,25,-71,-20
0.162167,19,1644,8210,69,-122,-26
0.162306,79,1645,8169,19,-26,-13
0.162445,39,1616,8219,88,-58,-39
0.162585,19,1561,8221,25,-58,-7
0.162724,76,1615,8163,31,-84,-1
0.162863,61,1578,8150,50,-58,-51
0.163003,53,1611,8190,25,-52,6
0.163142,23,1615,8193,56,-77,-51
0.163281,-2,1591,8176,56,-58,-1
0.163421,28,1628,8116,12,-58,-26
0.16356,-13,1633,8121,63,-109,-39
0.163699,-42,1590,8181,31,-52,-20
0.163839,-33,1597,8111,25,-84,25
0.163978,-73,1626,8117,81,-77,-51
0.164117,-80,1636,8098,37,-77,-20
0.164257,-105,1662,8078,44,-84,-13
0.164396,-131,1631,8048,37,-52,-32
0.164535,-158,1684,8038,25,-64,-26
0.164674,-165,1702,8032,44,-116,6
0.164814,-166,1683,8110,44,-58,-64
0.164953,-157,1702,8078,56,-64,12
0.165092,-140,1712,8046,25,-71,18
0.165232,-169,1661,8014,69,-58,-58
0.165371,-175,1621,8040,12,-109,-13
0.16551,-110,1733,8050,19,-26,-13
0.165649,-69,1734,8046,100,-122,-13
0.16579,-152,1628,8100,19,-33,-39
0.165928,-123,1709,8133,-7,-84,6
0.166068,-116,1697,8101,75,-96,-51
0.166207,-73,1641,8134,50,-52,25
0.166346,-88,1648,8170,44,-58,-64
0.166485,-34,1657,8161,37,-103,6
0.166625,-61,1614,8174,44,-39,-32
0.166764,-40,1660,8191,75,-103,-26
0.166903,-42,1641,8197,6,-33,-32
0.167043,-2,1590,8221,63,-90,-7
0.167182,-1,1640,8233,31,-58,-7
0.167321,14,1574,8141,44,-103,-39
0.167462,62,1622,8132,56,-39,-26
0.1676,-9,1621,8146,69,-96,-64
0.167739,-32,1621,8208,-19,-45,50
0.16788,-44,1638,8172,69,-84,-70
0.168019,-4,1583,8133,75,-109,-1
0.168157,14,1590,8123,25,-39,-13
0.168297,-14,1633,8116,37,-77,-51
0.168436,-11,1641,8039,63,-52,-7
0.168577,-54,1638,8020,12,-71,-26
0.168715,-28,1571,8052,81,-77,-58
0.168854,-90,1597,8003,-13,-45,62
0.168997,-135,1622,8009,88,-103,-114
0.169134,-127,1694,7997,0,-58,12
0.169272,-123,1686,8021,75,-58,-1
0.169414,-160,1634,8012,25,-45,-39
0.169551,-124,1682,8001,31,-116,-26
0.16969,-112,1703,7959,25,-52,-32
0.169829,-109,1611,7958,44,-77,-13
0.16997,-67,1635,7975,37,-58,-7
0.170108,-110,1636,7986,63,-71,-26
0.170247,-144,1617,7995,31,-90,-32
0.170386,-103,1586,8017,50,-39,-7
0.170526,-62,1663,7986,37,-103,-20
0.170666,-81,1684,7986,12,-33,-13
0.170805,-97,1649,8085,63,-96,-51
0.170944,-64,1692,8143,19,-77,-7
0.171083,-22,1657,8149,37,-33,-7
0.171222,-30,1617,8168,31,-90,6
0.171362,-5,1663,8226,50,-90,-64
0.171501,-18,1684,8218,44,-58,-26
0.17164,25,1613,8220,44,-96,-7
0.17178,23,1645,8255,19,-58,-20
0.171919,52,1608,8315,63,-90,-45
0.172058,0,1554,8281,12,-39,18
0.172198,-22,1578,8273,56,-96,-58
0.172337,6,1604,8250,44,-45,6
0.172476,18,1622,8228,63,-103,-58
0.172616,-7,1616,8238,19,-45,25
0.172755,-30,1637,8199,75,-96,-70
0.172894,-24,1586,8190,12,-26,6
0.173034,-34,1633,8165,75,-122,-20
0.173173,-25,1615,8189,19,-45,-32
0.173312,-82,1583,8130,63,-103,-26
0.173451,-96,1571,8125,88,-39,-39
0.173591,-149,1658,8136,0,-77,-1
0.17373,-105,1643,8089,69,-77,-26
0.17387,-132,1656,8069,44,-84,-51
0.174009,-137,1695,8064,19,-26,31
0.174148,-164,1632,8044,63,-96,-32
0.174288,-147,1663,8042,69,-96,-45
0.174427,-164,1761,7979,50,-45,-20
0.174566,-195,1727,7980,25,-71,-1
0.17471,-205,1621,8004,63,-77,-51
0.174845,-184,1660,7977,12,-84,-1
0.174984,-141,1673,7995,56,-58,-32
0.175123,-136,1674,7970,44,-71,-13
0.175263,-108,1687,7997,63,-84,-7
0.175402,-133,1649,8034,12,-77,-32
0.175541,-140,1660,8011,50,-96,-26
0.17568,-91,1684,8009,31,-39,-7
0.175822,-60,1653,8022,75,-90,-58
0.175959,-44,1634,8039,37,-64,12
0.176099,-44,1610,8036,6,-58,-13
0.176238,-13,1645,8091,69,-116,-39
0.176377,54,1631,8033,25,-71,12
0.176517,-3,1581,8119,69,-84,-58
0.176656,-23,1605,8138,25,-33,-26
0.176795,-4,1616,8087,56,-109,-13
0.176934,-24,1622,8083,37,-71,-7
0.177074,16,1586,8118,50,-45,-20
0.177213,24,1582,8143,37,-90,-26
0.177352,54,1632,8100,69,-96,-77
0.177492,15,1577,8161,0,-33,56
0.177631,6,1604,8215,44,-96,-32
0.17777,26,1655,8116,63,-45,-51
0.177911,-29,1585,8132,56,-77,-7
0.17805,-54,1615,8118,25,-84,-26
0.178188,-64,1618,8072,69,-77,-13
0.178331,-73,1652,8078,12,-64,-45
0.178467,-50,1624,8106,69,-58,-1
0.178606,-78,1639,8087,12,-52,-20
0.178745,-94,1646,8106,56,-122,-39
0.178885,-52,1691,8072,50,-52,-7
0.179024,-109,1659,8087,63,-96,-58
0.179163,-104,1659,8105,37,-58,-7
0.179303,-86,1722,8076,0,-39,25
0.179446,-58,1652,8092,69,-96,-70
0.179581,-110,1665,8108,50,-84,-39
0.179721,-118,1672,8145,37,-45,44
0.17986,-62,1663,8104,50,-77,-58
0.179999,-65,1670,8205,31,-96,-13
0.180139,-117,1674,8118,44,-64,-13
0.180278,-130,1662,8084,44,-77,-32
0.180417,-119,1604,8073,12,-71,-20
0.180557,-110,1633,8148,63,-64,-20
0.180696,-57,1593,8190,50,-52,-1
0.180835,-31,1648,8133,44,-77,-45
0.180975,-67,1628,8130,50,-109,-26
0.181114,-26,1625,8172,44,-39,-20
0.181253,-54,1608,8203,19,-77,-7
0.181393,-81,1622,8181,63,-90,-26
0.181532,-51,1638,8190,37,-96,-51
0.181671,-37,1663,8163,19,-45,37
0.18181,-9,1651,8196,75,-109,-83
0.18195,-50,1577,8191,-19,-33,37
0.182089,-103,1644,8121,88,-128,-70
0.182228,-41,1636,8122,31,-39,-1
0.182368,-66,1611,8081,56,-96,-7
0.182507,-50,1582,8074,50,-58,-45
0.182646,-27,1638,8075,31,-77,-20
0.182786,-85,1603,8072,50,-84,25
0.182925,-98,1622,8114,19,-58,-45
0.183064,-90,1646,8066,94,-64,-45
0.183204,-42,1623,8013,0,-71,37
0.183343,-86,1650,8047,94,-71,-58
0.183482,-91,1635,8046,44,-84,-20
0.183622,-50,1641,8023,19,-84,-32
0.183761,-69,1673,8062,88,-77,-20
0.1839,-108,1648,8039,6,-52,18
0.18404,-106,1685,8002,94,-58,-64
0.184179,-90,1643,8019,-13,-90,-1
0.184318,-94,1645,7993,107,-45,-7
0.184458,-118,1634,7997,-13,-103,-58
0.184597,-83,1609,8018,63,-64,-13
0.184736,-45,1672,7953,19,-45,-1
0.184876,-38,1695,8021,56,-128,-83
0.185015,-56,1643,8100,19,-33,31
0.185154,-17,1656,8109,56,-58,-32
0.185293,-44,1683,8095,25,-77,-26
0.185433,0,1628,8070,56,-84,-45
0.185572,-17,1641,8097,25,-52,18
0.185711,12,1659,8110,50,-84,-64
0.185851,-58,1635,8108,31,-39,44
0.18599,-26,1621,8121,63,-122,-77
0.186129,-39,1618,8176,37,-77,-26
0.186269,-38,1617,8132,0,-45,25
0.186408,5,1657,8150,107,-77,-77
0.186547,-31,1656,8106,19,-64,6
0.186687,-25,1653,8152,44,-84,12
0.186826,-131,1657,8137,44,-71,-45
0.186965,-50,1653,8120,69,-103,-45
0.187105,-14,1583,8129,19,-33,18
0.187244,-44,1668,8133,6,-77,-20
0.187383,3,1635,8159,113,-103,-89
0.187523,-84,1600,8099,-25,-52,56
0.187662,-88,1633,8072,81,-84,-64
0.187801,-118,1630,8068,44,-84,-32
0.187941,-86,1617,8117,37,-58,31
0.18808,-120,1653,8103,31,-64,-26
0.188219,-94,1646,8052,69,-103,-45
0.188358,-96,1652,8090,25,-20,-32
0.188498,-59,1692,8066,63,-128,-39
0.188637,-51,1707,8052,44,-26,6
0.188776,-116,1639,8090,50,-84,-13
0.188916,-118,1641,8108,6,-71,-39
0.189055,-119,1687,8086,94,-77,-13
0.189194,-123,1710,8078,31,-58,-58
0.189334,-121,1652,8098,25,-77,12
0.189473,-68,1640,8034,69,-71,-58
0.189612,-81,1679,8017,44,-52,-1
0.189752,-117,1671,8039,44,-90,6
0.189891,-67,1660,8091,6,-71,-51
0.19003,-94,1662,8046,50,-84,-32
0.19017,-81,1647,8063,31,-77,37
0.190309,-85,1620,8124,69,-84,-64
0.190448,-60,1672,8100,50,-64,-64
0.190588,-64,1652,8104,0,-84,31
0.190727,-64,1617,8065,56,-33,-13
0.190866,-92,1661,8127,69,-109,-64
0.191006,-106,1666,8120,25,-52,12
0.191145,-49,1644,8153,50,-116,-51
0.191284,-36,1637,8168,25,-45,18
0.191423,-28,1669,8083,44,-84,-45
0.191563,-61,1631,8048,37,-52,-39
0.191702,-94,1566,8158,75,-90,-13
0.191841,16,1582,8103,25,-109,-13
0.191981,-18,1592,8125,25,-26,-20
0.19212,-22,1649,8110,81,-116,-32
0.192259,-34,1634,8106,25,-39,25
0.192399,-2,1605,8102,69,-109,-77
0.192538,-3,1628,8076,-13,-45,12
0.192678,2,1641,8057,50,-77,-20
0.192817,-35,1656,8070,75,-77,-13
0.192956,-67,1625,8064,6,-64,-32
0.193095,-80,1623,8008,50,-96,-26
0.193235,-71,1655,8012,56,-64,-20
0.193376,-56,1651,8021,37,-77,-26
0.193513,-100,1670,8094,37,-58,-20
0.193653,-62,1620,8068,69,-64,-26
0.193792,-45,1665,8081,19,-64,-26
0.193931,-15,1656,8096,69,-39,-13
0.194071,-90,1671,8058,6,-84,-7
0.19421,-114,1684,8044,75,-84,-45
0.194349,-121,1667,8112,37,-26,-20
0.194488,-95,1668,8042,25,-135,-7
0.194628,-67,1702,8079,50,-45,-13
0.194767,-74,1645,8074,75,-45,-32
0.194906,-51,1629,8073,12,-64,-1
0.195046,-36,1686,8120,50,-96,-32
0.195185,-75,1607,8151,37,-58,-20
0.195324,-110,1696,8078,63,-71,-7
0.195464,-90,1696,8112,6,-58,-1
0.195603,-15,1671,8182,88,-116,-58
0.195742,-37,1641,8140,37,-58,12
0.195882,-41,1648,8114,81,-52,-51
0.196021,-30,1639,8147,-7,-58,-32
0.19616,-55,1626,8110,113,-122,-13
0.1963,-80,1667,8175,-19,-26,-20
0.196439,-50,1635,8171,88,-96,-58
0.196578,-29,1647,8151,0,-71,12
0.196718,-16,1633,8142,75,-77,-26
0.196857,-39,1635,8157,0,-39,-20
0.196996,-43,1624,8174,94,-135,-51
0.197136,-13,1613,8120,31,-39,-20
0.197275,-41,1625,8148,12,-84,31
0.197415,-68,1637,8128,69,-109,-89
0.197553,-74,1595,8095,56,-71,-13
0.197693,-70,1626,8125,19,-58,-1
0.197832,-20,1674,8091,44,-64,-51
0.197971,-99,1645,8083,25,-90,-7
0.198111,-129,1616,8072,69,-64,-20
0.19825,-97,1647,8064,25,-71,-1
0.198389,-84,1648,8078,56,-96,-58
0.198529,-88,1657,8079,50,-64,-20
0.198668,-114,1674,8082,37,-64,-7
0.198807,-102,1703,8036,44,-96,-39
0.198947,-89,1624,8060,25,-39,6
0.199086,-89,1647,8016,56,-96,-32
0.199225,-55,1614,8046,37,-90,-7
0.199365,-87,1661,8014,69,-33,-26
0.199504,-98,1637,8003,50,-109,-26
0.199643,-55,1594,7980,31,-64,-45
0.199783,-146,1626,8021,69,-71,44
0.199922,-110,1650,7982,-7,-45,-39
0.200061,-92,1613,8021,75,-96,-26
0.200201,-44,1652,7982,37,-45,-13
0.20034,-24,1608,8025,50,-90,-39
0.200479,-58,1635,8029,37,-52,-7
0.200619,-68,1613,8029,50,-64,6
0.200758,-75,1654,8057,6,-90,-39
0.200897,-86,1651,8042,81,-77,-39
0.201036,-82,1657,8120,25,-64,6
0.20118,-33,1614,8117,37,-77,-58
0.201315,0,1680,8122,37,-77,44
0.201454,13,1620,8134,19,-52,-58
0.201594,19,1636,8136,75,-64,-39
0.201733,-51,1655,8139,19,-77,-32
0.201872,-45,1654,8122,50,-77,12
0.202012,-51,1614,8153,31,-84,-58
0.202153,-52,1639,8148,50,-45,18
0.20229,-49,1690,8170,44,-96,-58
0.20243,-16,1627,8131,19,-45,-1
0.202569,-8,1616,8125,100,-96,-39
0.202708,-22,1616,8183,-7,-58,-20
0.202848,-56,1628,8253,31,-90,-32
0.202987,-1,1669,8144,63,-77,-7
0.203126,6,1685,8173,44,-71,-32
0.203266,-25,1622,8155,-7,-39,6
0.203405,-58,1656,8136,88,-64,-20
0.203544,-39,1671,8080,37,-84,-39
0.203684,-126,1637,8077,69,-58,-20
0.203823,-88,1687,8074,19,-58,-26
0.203962,-106,1650,8113,50,-90,6
0.204101,-91,1662,8060,50,-64,-39
0.204241,-110,1674,8056,25,-71,6
0.20438,-114,1600,8021,100,-96,-32
0.204519,-93,1629,8033,-7,-33,-32
0.204659,-111,1690,7998,75,-103,-1
0.204798,-88,1643,8032,6,-64,-1
0.204937,-115,1656,8068,75,-90,-39
0.205077,-92,1674,8072,19,-33,-7
0.205216,-113,1599,8082,75,-103,-51
0.205355,-110,1672,8009,37,-64,-1
0.205495,-126,1663,8016,56,-64,-58
0.205634,-163,1681,8020,6,-71,31
0.205773,-96,1704,8033,63,-77,-39
0.205913,-89,1656,8043,44,-103,-45
0.206052,-99,1665,8054,37,-26,6
0.206191,-72,1682,8062,25,-122,-32
0.206331,-84,1673,8132,56,-39,-20
0.20647,-95,1694,8141,37,-96,-26
0.206609,-47,1638,8147,69,-64,-20
0.206749,-55,1688,8133,12,-58,-26
0.206887,-46,1635,8154,63,-103,-13
0.207027,-19,1695,8149,12,-39,6
0.207166,5,1672,8151,63,-84,-58
0.207306,-37,1649,8135,44,-84,-13
0.207445,16,1645,8166,50,-103,-32
0.207584,-10,1591,8132,31,-1,6
0.207724,-17,1576,8107,63,-135,-32
0.207863,-13,1589,8146,69,-39,-32
0.208002,11,1656,8137,6,-84,-13
0.208142,-3,1616,8122,50,-58,-26
0.208281,-27,1630,8077,12,-64,12
0.20842,-33,1586,8119,100,-77,-64
0.20856,-61,1597,8068,25,-71,-20
0.208699,-46,1602,8112,50,-77,-7
0.208838,-78,1634,8132,56,-71,-20
0.208978,-101,1618,8111,50,-84,-1
0.209117,-124,1594,8084,19,-52,-51
0.209256,-121,1620,8103,88,-96,-13
0.209396,-111,1671,8014,0,-39,-13
0.209535,-76,1707,8078,75,-90,-32
0.209674,-105,1693,8052,56,-64,-45
0.209814,-104,1674,8028,19,-52,18
0.209953,-90,1652,8044,81,-109,-51
0.210092,-101,1654,7960,12,-58,-7
0.210231,-99,1650,8027,69,-71,-32
0.210371,-161,1720,8016,12,-84,6
0.21051,-96,1681,8041,75,-71,-45
0.210649,-87,1610,8104,0,-64,6
0.210789,-134,1630,8062,81,-84,-39
0.210928,-74,1670,8069,50,-58,-26
0.211068,-62,1682,8043,0,-45,-13
0.211207,-114,1643,8084,44,-58,-20
0.21135,-107,1592,8092,56,-103,-26
0.211486,-63,1608,8098,0,-45,6
0.211625,-72,1674,8134,88,-64,-20
0.211764,-28,1640,8164,37,-77,-39
0.211903,-60,1667,8198,25,-52,-13
0.212043,-16,1649,8147,50,-52,-26
0.212184,-6,1597,8176,63,-71,-26
0.212321,-53,1603,8170,-13,-52,-1
0.212463,-7,1652,8181,81,-128,-32
0.2126,-10,1622,8188,44,-45,-7
0.212739,-3,1637,8134,25,-58,-32
0.212879,-13,1619,8126,19,-71,-39
0.213018,-30,1664,8124,63,-58,-1
0.213158,-50,1652,8160,44,-84,-51
0.213297,-55,1630,8164,56,-71,-20
0.213436,-83,1639,8147,25,-90,-1
0.213575,-31,1618,8130,44,-20,-20
0.213715,-79,1594,8105,44,-116,6
0.213854,-104,1641,8091,56,-52,-45
0.213993,-98,1680,8068,81,-103,-64
0.214133,-127,1677,8110,-19,-39,31
0.214275,-111,1668,8112,81,-77,-26
0.214411,-150,1658,8069,37,-84,-64
0.214551,-123,1684,8085,37,-64,18
0.214691,-68,1704,8017,12,-33,-1
0.21483,-81,1701,7989,81,-109,-64
0.214968,-109,1680,8065,63,-39,-1
0.215108,-141,1670,8039,0,-90,-26
0.215248,-118,1653,8062,37,-39,-39
0.215386,-62,1677,8051,81,-71,-26
0.215525,-120,1720,8011,6,-52,12
0.215665,-92,1693,8036,12,-84,-39
0.215805,-93,1608,8027,88,-33,-7
0.215944,-83,1637,8071,12,-109,-45
0.216083,-111,1671,8079,44,-45,18
0.216222,-87,1631,8084,50,-77,-64
0.216361,-46,1624,8103,31,-71,-13
0.216501,-124,1659,8102,31,-58,-26
0.21664,-64,1663,8116,37,-71,6
0.216779,-4,1642,8130,63,-90,-51
0.216919,-25,1629,8161,31,-71,-20
0.217058,-21,1632,8152,69,-58,-32
0.217197,-54,1608,8171,12,-71,12
0.217337,-54,1621,8170,31,-45,-58
0.217476,-11,1642,8200,37,-90,-7
0.217615,9,1650,8143,69,-45,-13
0.217755,-12,1596,8190,37,-71,-39
0.217894,-12,1640,8200,37,-84,-20
0.218033,-65,1659,8192,81,-84,-20
0.218173,-53,1636,8173,6,-58,-26
0.218312,-72,1671,8147,69,-90,-1
0.218451,-25,1606,8143,37,-90,-45
0.21859,-51,1669,8036,56,-33,-20
0.21873,-74,1651,8055,69,-96,-39
0.218869,-95,1620,8109,25,-58,-1
0.219008,-65,1623,8112,25,-64,-1
0.219148,-44,1652,8045,50,-109,-64
0.219287,-27,1659,8022,50,-39,-1
0.219426,-70,1649,8081,56,-90,-13
0.219566,-164,1642,8122,44,-96,-20
0.219706,-71,1681,8066,69,-58,-45
0.219845,-91,1636,8025,-7,-39,-1
0.219986,-90,1629,8034,88,-103,-26
0.220123,-120,1598,8055,6,-77,-51
0.220264,-148,1660,8036,19,-13,31
0.220402,-68,1685,8048,81,-128,-83
0.220541,-75,1667,8041,44,-39,31
0.22068,-91,1640,8025,50,-84,-45
0.22082,-110,1684,8042,25,-58,-13
0.220959,-137,1649,8023,50,-84,-26
0.221098,-73,1658,8043,44,-58,-26
0.221239,-109,1663,8111,31,-71,-13
0.221379,-80,1626,8102,69,-84,-13
0.221516,-71,1678,8067,-13,-84,-26
0.221657,-67,1658,8121,81,-64,6
0.221795,-109,1613,8123,44,-77,-51
0.221934,-75,1654,8094,-7,-33,25
0.222074,-72,1623,8089,107,-90,-51
0.222213,-38,1678,8120,-13,-45,-26
0.222352,-36,1642,8125,63,-39,-1
0.222493,-28,1667,8180,12,-103,-13
0.222631,-61,1672,8147,81,-90,-45
0.22277,-64,1656,8166,6,-20,6
0.222911,-55,1671,8152,94,-116,-51
0.223049,-42,1664,8121,19,-45,-20
0.223188,-42,1686,8106,6,-58,-7
0.223328,-76,1657,8073,69,-84,-58
0.223467,-31,1685,8085,25,-52,37
0.223606,-40,1583,8083,81,-109,-64
0.223745,-24,1655,8064,6,-39,-26
0.223886,-66,1676,8087,56,-96,6
0.224025,-79,1606,8036,37,-71,-39
0.224163,-57,1628,8051,44,-103,-32
0.224303,-82,1669,8089,31,-45,-1
0.224444,-47,1633,8021,0,-52,-45
0.224581,-65,1654,8069,94,-96,12
0.224721,-29,1651,8067,6,-71,-45
0.22486,-104,1613,8066,75,-58,-32
0.224999,-117,1605,8054,31,-71,-1
0.225138,-70,1677,7935,25,-84,-58
0.225279,-90,1674,8031,37,-52,6
0.225417,-111,1662,8029,37,-64,6
0.225557,-52,1702,8010,50,-77,-77
0.225696,-82,1647,8059,50,-45,18
0.225836,-165,1585,8055,44,-109,-64
0.225974,-111,1624,8063,37,-39,6
0.226115,-91,1657,8110,37,-77,-13
0.226253,-118,1640,8068,63,-84,-32
0.226392,-101,1664,8138,31,-90,-13
0.226532,-55,1656,8043,63,-39,-32
0.226671,-34,1668,8016,37,-64,-20
0.22681,-92,1646,8084,56,-77,-39
0.22695,-64,1626,8132,37,-77,18
0.227089,-78,1617,8136,-7,-39,-32
0.227228,-75,1579,8122,125,-109,-1
0.227368,-76,1625,8142,-19,-58,-45
0.227507,-45,1605,8124,81,-52,-1
0.227646,-88,1679,8110,37,-96,-45
0.227787,-41,1634,8114,31,-13,6
0.227925,-29,1637,8122,56,-135,-45
0.228064,-44,1591,8092,25,-39,-26
0.228204,-76,1666,8112,37,-45,25
0.228344,0,1633,8064,56,-103,-58
0.228482,-37,1642,8067,44,-45,-39
0.228621,-61,1622,8156,25,-52,31
0.228762,-55,1629,8135,63,-103,-39
0.2289,-37,1647,8113,19,-45,-26
0.22904,-62,1639,8065,44,-58,-32
0.229179,-152,1698,8114,50,-103,-1
0.229318,-66,1656,8118,25,-7,-7
0.229458,-84,1634,8064,56,-116,-39
0.229597,-89,1640,8084,25,-71,-13
0.229736,-109,1644,8076,69,-71,-26
0.229875,-33,1636,8092,31,-77,-26
0.230015,-98,1639,8105,12,-71,-13
0.230154,-84,1673,8062,69,-77,-1
0.230294,-130,1628,8149,50,-45,-64
0.230433,-98,1645,8117,50,-71,31
0.230572,-25,1630,8067,44,-103,-64
0.230711,-45,1646,8096,31,-52,6
0.230851,-92,1612,8082,50,-71,-20
0.23099,-70,1601,8094,31,-71,-39
0.23113,-24,1624,8063,56,-77,-39
0.231269,-57,1637,8136,50,-52,-1
0.231408,-76,1619,8134,31,-96,-13
0.231547,-63,1627,8090,50,-77,-45
0.231687,-106,1677,8127,37,-64,-20
0.231826,-32,1628,8136,56,-39,-13
0.231965,-21,1635,8065,56,-128,-32
0.232105,-86,1604,8102,44,-45,-39
0.232244,-92,1665,8115,12,-64,25
0.232383,-118,1663,8111,56,-90,-58
0.232522,-121,1666,8134,50,-96,-13
0.232662,-70,1608,8082,56,-71,-32
0.232801,-60,1588,8060,56,-77,-13
0.232941,-46,1715,8064,31,-58,-20
0.23308,-65,1676,8120,31,-58,-1
0.23322,-29,1648,8085,88,-103,-64
0.233358,-82,1677,8068,6,-52,-1
0.233498,-111,1619,8052,63,-39,-26
0.233637,-79,1645,8076,25,-96,-20
0.233777,-62,1646,8082,63,-64,-26
0.233918,-64,1681,8073,19,-64,-13
0.234055,-94,1621,8116,44,-52,-32
0.234195,-107,1649,8056,56,-84,-1
0.234334,-58,1678,8027,37,-58,-51
0.234473,-108,1655,8082,37,-77,12
0.234612,-51,1657,8053,50,-84,-58
0.234752,-58,1661,8001,19,-52,25
0.234891,-52,1626,8066,81,-77,-45
0.235031,-90,1656,8073,6,-84,-1
0.23517,-70,1671,8074,63,-77,-45
0.23531,-42,1651,8096,56,-77,6
0.235449,-78,1609,8058,19,-33,-32
0.235588,-58,1608,8089,31,-64,-13
0.235727,-57,1681,8087,63,-103,-20
0.235866,-66,1628,8116,88,-71,-51
0.236005,-50,1642,8131,-19,-58,12
0.236145,-121,1632,8150,100,-77,-45
0.236284,-28,1628,8166,31,-71,6
0.236423,22,1648,8125,25,-58,-58
0.236563,-9,1674,8091,81,-96,6
0.236702,-8,1616,8086,-19,-45,-20
0.236843,-70,1644,8058,125,-116,-20
0.236981,-102,1620,8129,-13,-39,-13
0.23712,-47,1633,8073,69,-77,-7
0.237261,5,1654,8092,100,-77,-58
0.237399,-32,1642,8096,0,-20,6
0.237538,-89,1669,8090,63,-96,6
0.237677,-93,1711,8096,44,-58,-45
0.237817,-84,1672,8093,37,-58,-32
0.237956,-109,1670,8112,69,-84,-1
0.238095,-114,1643,8126,12,-58,-20
0.238235,-53,1647,8083,69,-96,-58
0.238376,-80,1648,8106,19,-45,18
0.238514,-34,1646,8136,63,-64,-64
0.238652,-92,1654,8130,19,-84,12
0.238792,-40,1679,8108,37,-45,-7
0.238931,-82,1667,8117,69,-90,-39
0.239073,-94,1664,8111,37,-77,-20
0.23921,-102,1627,8125,50,-33,-32
0.239349,-61,1654,8124,56,-109,-7
0.239489,-56,1619,8095,6,-64,-39
0.239628,-69,1654,8146,88,-58,-1
0.239767,-49,1601,8079,25,-96,-45
0.239907,-61,1640,8079,37,-58,6
0.240046,-14,1636,8078,75,-64,-39
0.240185,-73,1662,8080,19,-96,-13
0.240325,-118,1691,8118,31,-77,-20
0.240464,-98,1605,8111,69,-52,-7
0.240603,-90,1649,8153,25,-71,-32
0.240743,-71,1686,8162,31,-58,-26
0.240882,-46,1648,8102,37,-64,-13
0.241021,-72,1668,8081,44,-90,-39
0.24116,-39,1640,8082,44,-71,-51
0.241301,-44,1623,8061,31,-33,6
0.241439,-60,1659,8085,37,-96,-26
0.241578,-132,1577,8090,44,-71,-1
0.241718,-3,1627,8130,63,-71,-58
0.241857,-41,1617,8171,12,-52,6
0.241996,-32,1658,8138,69,-96,-13
0.242136,-61,1727,8085,25,-33,-13
0.242275,-51,1656,8119,12,-90,-58
0.242414,-64,1612,8137,50,-45,-7
0.242554,-41,1653,8128,63,-109,-26
0.242693,-50,1665,8107,50,-52,-26
0.242832,-32,1672,8111,50,-77,-26
0.242972,-67,1606,8176,-19,-26,31
0.243111,-43,1701,8144,81,-128,-77
0.24325,-62,1654,8161,56,-33,6
0.24339,-38,1593,8112,69,-103,-51
0.243529,-81,1650,8143,-7,-58,-1
0.243668,-86,1655,8095,44,-58,6
0.243807,-45,1657,8099,50,-77,-39
0.243947,-78,1641,8101,56,-84,-13
0.244086,-106,1623,8131,50,-77,-45
0.244225,-84,1602,8071,25,-52,18
0.244365,-60,1610,8084,50,-71,-45
0.244504,-69,1635,8104,25,-71,-32
0.244644,-95,1665,8092,44,-58,-7
0.244782,-77,1609,8086,75,-90,-13
0.244924,-80,1621,8074,6,-45,-13
0.245061,-54,1624,8081,81,-109,-26
0.245201,-103,1627,8076,19,-39,-7
0.24534,-63,1647,8116,25,-58,-39
0.245479,-117,1633,8083,88,-116,-26
0.245618,-90,1647,8075,25,-52,-26
0.245758,-84,1619,8081,31,-71,18
0.245897,-165,1673,8092,56,-90,-64
0.246036,-88,1631,8064,50,-84,12
0.246176,-70,1695,8043,69,-77,-39
0.246315,-48,1642,8095,-13,-33,-7
0.246454,-80,1645,8109,94,-116,-32
0.246595,-67,1659,8094,0,-52,-32
0.246733,-74,1634,8136,75,-64,-7
0.246873,-71,1640,8107,12,-103,-20
0.247012,-100,1634,8072,37,-13,6
0.247151,-114,1637,8071,56,-141,-51
0.24729,-56,1642,8078,31,-39,25
0.24743,-18,1646,8107,31,-71,-77
0.247569,-37,1603,8129,69,-52,6
0.247709,-95,1637,8049,31,-96,-13
0.247848,-32,1671,8127,37,-39,-20
0.247987,-54,1684,8096,31,-90,-32
0.248126,-97,1622,8072,25,6,18
0.248267,-49,1668,8093,119,-141,-83
0.248405,-103,1685,8055,-25,-26,31
0.248547,-90,1579,8082,100,-77,-51
0.248683,-65,1661,8122,44,-90,-32
0.248823,-72,1665,8111,12,-52,12
0.248962,-90,1625,8115,50,-84,-45
0.249102,-80,1663,8094,31,-71,-7
0.249241,-176,1625,8113,88,-71,-26
0.24938,6,1636,8109,0,-45,6
0.249519,-111,1688,8100,69,-84,-32
0.249659,-27,1665,8117,6,-84,-58
0.249798,-57,1659,8113,56,-71,18
0.249938,-87,1671,8083,37,-45,-13
0.250077,-68,1688,8080,44,-84,-13
0.250216,-79,1658,8120,81,-90,-32
0.250355,-99,1643,8166,25,-77,-32
0.250495,-62,1661,8090,37,-58,31
0.250634,-30,1582,8138,12,-71,-77
0.250773,-58,1614,8100,69,-103,6
0.250912,-123,1677,8094,19,-39,-26
0.251052,-105,1634,8148,63,-71,-13
0.251191,-61,1602,8181,44,-84,-32
0.25133,-34,1638,8119,44,-58,-13
0.25147,-67,1623,8079,25,-71,-1
0.251609,-58,1641,8119,56,-90,-26
0.251749,-40,1615,8082,69,-90,-32
0.251888,27,1601,8019,-13,-26,-7
0.252027,-56,1572,8060,94,-128,-45
0.252167,-65,1627,8071,25,-52,-26
0.252306,-44,1628,8013,56,-39,-7
0.252445,-53,1650,8032,6,-96,-20
0.252586,-106,1674,8042,69,-45,-7
0.252724,-82,1642,8031,31,-77,-26
0.252863,-102,1654,8060,44,-45,-1
0.253002,-54,1662,8079,56,-96,-39
0.253142,-64,1656,8067,25,-33,-32
0.253281,-64,1634,8081,6,-90,6
0.25342,-28,1659,8127,75,-103,-45
0.25356,-74,1673,8145,19,-52,-1
0.253701,-87,1696,8117,75,-45,-20
0.253838,-76,1673,8100,25,-96,-13
0.253978,-86,1666,8173,37,-64,-32
0.254117,-79,1652,8155,63,-96,-39
0.254256,-47,1674,8115,12,-45,-7
0.254396,-77,1609,8143,12,-58,18
0.254535,-47,1630,8092,94,-109,-51
0.254674,-37,1687,8110,37,-45,-20
0.254816,-23,1634,8146,12,-58,-20
0.254954,-48,1639,8133,81,-77,-1
0.255092,-57,1678,8055,37,-64,-32
0.255231,-74,1615,8119,50,-45,-20
0.255372,-49,1627,8064,31,-122,-32
0.25551,-41,1623,8118,56,-20,-1
0.255649,45,1593,8035,63,-96,-20
0.255789,19,1608,8083,19,-58,-32
0.255928,-65,1614,8102,50,-96,-13
0.25607,-68,1601,8043,56,-45,-20
0.256206,-47,1633,8100,25,-103,-32
0.256346,-11,1641,8138,63,-39,12
0.256485,-72,1620,8054,63,-71,-58
0.256624,-101,1605,8072,44,-96,-32
0.256765,-10,1653,8068,37,-71,-7
0.256903,-18,1684,8051,56,-77,-26
0.257043,-88,1649,8091,19,-52,-13
0.257182,-99,1672,8058,63,-84,-39
0.257321,-120,1644,8124,25,-71,25
0.257461,-84,1695,8100,69,-84,-58
0.257601,-73,1670,8074,25,-39,-1
0.257739,-147,1602,8026,50,-116,-32
0.257878,-114,1631,8037,44,-45,-45
0.258024,-93,1578,8016,19,-64,6
0.258157,-131,1643,8086,56,-77,-13
0.258297,-120,1694,8053,44,-64,-45
0.258436,-88,1644,8076,50,-39,6
0.258575,-77,1671,8080,19,-122,-39
0.258715,-82,1646,8094,44,-33,-13
0.258854,-82,1643,8115,75,-84,-20
0.258993,-124,1638,8133,6,-64,-26
0.259132,-86,1613,8128,81,-84,-26
0.259272,-49,1649,8111,44,-52,-20
0.259411,-67,1671,8114,37,-103,-45
0.259552,-14,1618,8114,37,-39,18
0.25969,-33,1577,8123,44,-71,-51
0.259829,-36,1615,8098,12,-77,-1
0.259969,-91,1621,8128,81,-58,-26
0.260108,-62,1620,8129,6,-64,12
0.260248,-32,1628,8071,94,-96,-70
0.260386,21,1614,8114,12,-39,-1
0.260527,-62,1683,8139,31,-103,-13
0.260665,-40,1646,8159,37,-1,-26
0.260804,-21,1630,8178,56,-84,6
0.260944,-20,1599,8066,63,-109,-58
0.261083,-72,1593,8067,12,-39,-7
0.261222,-60,1656,8099,37,-39,-13
0.261362,-118,1641,8116,75,-103,-7
0.261501,-85,1649,8087,12,-52,-32
0.26164,-34,1666,8066,63,-128,-45
0.261782,-100,1697,8081,44,-39,18
0.261919,-97,1660,8045,69,-84,-51
0.262058,-37,1626,8074,19,-71,-1
0.262198,-65,1634,8064,63,-128,-26
0.262337,-79,1640,8055,50,12,-7
0.262476,-155,1675,8045,56,-116,-51
0.262615,-59,1689,8024,12,-13,6
0.262755,-128,1662,8069,100,-135,-51
0.262894,-110,1614,8024,19,-58,-7
0.263033,-72,1598,8064,25,-77,-20
0.263173,-89,1699,8081,88,-84,-32
0.263312,-114,1679,8062,-7,-84,12
0.263451,-78,1672,8022,75,-39,-20
0.263591,-56,1618,8112,75,-128,-58
0.26373,-25,1641,8080,19,-52,31
0.263869,-11,1648,8075,37,-52,-39
0.264009,-56,1653,8116,75,-90,-32
0.264148,-72,1647,8109,12,-84,-26
0.264287,-41,1650,8148,88,-84,-26
0.264427,-54,1595,8148,-19,-33,6
0.264566,-51,1633,8182,88,-90,-13
0.264707,-59,1642,8151,56,-71,-45
0.264845,-76,1615,8169,6,-96,-1
0.264984,-94,1656,8168,56,-33,-20
0.265123,-82,1594,8097,25,-64,-20
0.265262,-33,1616,8106,94,-103,-51
0.265402,-64,1674,8160,12,-52,12
0.265541,-25,1677,8168,44,-64,-32
0.265681,-25,1655,8182,6,-90,-20
0.26582,-39,1555,8150,63,-45,-20
0.265959,-23,1631,8171,81,-96,-39
0.266098,-35,1600,8133,-7,-52,-1
0.266237,-42,1614,8109,50,-90,-64
0.266377,-75,1617,8104,94,-52,44
0.266516,-52,1641,8094,19,-84,-70
0.266656,-106,1615,8131,12,-64,-13
0.266795,-73,1620,8123,69,-84,-13
0.266934,-53,1644,8097,25,-77,-20
0.267075,-115,1631,8092,44,-58,-51
0.267213,-73,1681,8082,100,-71,12
0.267353,-96,1647,8092,6,-64,-32
0.267492,-58,1617,8056,44,-58,-7
0.267632,-92,1632,8035,63,-90,-58
0.26777,-114,1618,8090,19,-33,6
0.267909,-120,1650,8134,50,-84,-39
0.268049,-61,1667,8052,56,-77,-13
0.268188,-64,1653,8054,25,-64,-1
0.268329,-64,1599,8074,31,-64,-32
0.268467,-9,1662,8073,44,-39,-32
0.268606,-122,1666,8037,25,-122,-13
0.268746,-88,1608,8071,56,-33,-13
0.268885,-69,1630,8102,50,-103,-20
0.269024,-48,1641,8136,37,-52,-26
0.269163,-83,1622,8097,19,-45,6
0.269303,-102,1626,8089,75,-116,-51
0.269442,-26,1563,8141,0,-45,12
0.269581,-64,1642,8158,94,-84,-58
0.269721,-72,1625,8104,12,-90,-39
0.26986,-87,1614,8103,63,-45,31
0.269999,-71,1644,8164,50,-71,-45
0.270139,-8,1638,8117,56,-77,-26
0.270278,-12,1661,8171,-7,-52,-26
0.270417,16,1672,8187,75,-58,-32
0.270557,-51,1646,8207,25,-109,-7
0.270696,-77,1640,8106,25,-13,-26
0.270835,-111,1654,8133,50,-96,-1
0.270975,-32,1663,8111,50,-52,-64
0.271114,-70,1627,8141,25,-109,12
0.271253,-60,1619,8166,6,-20,-26
0.271392,-56,1626,8102,50,-90,-1
0.271532,-32,1656,8106,63,-77,-45
0.271671,-38,1651,8111,31,-52,12
0.27181,-65,1582,8131,56,-77,-45
0.27195,-102,1633,8066,37,-122,-20
0.272089,-88,1634,8123,37,-20,-1
0.272229,-105,1667,8123,44,-84,-39
0.272368,-86,1663,8070,50,-77,-7
0.272507,-52,1693,8029,37,-84,-13
0.272646,-68,1657,8077,50,-52,-39
0.272786,-97,1613,8092,12,-90,-7
0.272925,-81,1643,8083,88,-64,-32
0.273064,-74,1601,8073,37,-77,-13
0.273204,-89,1652,8114,44,-90,-20
0.273343,-109,1664,8082,63,-45,-20
0.273482,-118,1637,8105,0,-58,-32
0.273622,-140,1648,8090,50,-77,-20
0.273761,-101,1655,8111,88,-39,12
0.2739,-96,1623,8092,-7,-116,-70
0.274039,-37,1646,8070,94,-64,-13
0.274179,-68,1625,8141,44,-77,12
0.274318,-86,1604,8142,6,-45,-45
0.274458,-42,1655,8095,81,-96,-7
0.274597,-74,1646,8096,-7,-58,-51
0.274736,-54,1620,8066,81,-52,-7
0.274876,-4,1655,8079,37,-109,-13
0.275015,-46,1596,8132,31,-33,-26
0.275154,-43,1633,8118,31,-96,-7
0.275293,-39,1646,8112,50,-64,-64
0.275433,-31,1617,8094,31,-58,-7
0.275572,-38,1652,8091,63,-77,-13
0.275711,-41,1616,8122,25,-77,-1
0.27585,-8,1653,8152,50,-45,-26
0.27599,-79,1604,8080,37,-103,-45
0.276129,-4,1625,8098,63,-1,6
0.276268,-32,1656,8126,44,-160,-39
0.276408,-55,1623,8062,19,-26,-13
0.276547,-68,1608,8111,81,-71,-39
0.276688,-91,1614,8156,37,-77,6
0.276826,-81,1631,8090,56,-52,-26
0.276965,-29,1679,8084,19,-71,-1
0.277105,-120,1680,8093,75,-90,-58
0.277245,-83,1698,8116,44,-58,-7
0.277383,-48,1632,8036,0,-52,-1
0.277522,-69,1643,8065,88,-84,-51
0.277662,-54,1632,8093,6,-58,-26
0.277802,-47,1651,8077,50,-103,-13
0.27794,-117,1635,8092,75,-39,-58
0.27808,-97,1636,8092,0,-71,12
0.278219,-111,1666,8109,75,-45,-20
0.278358,-28,1626,8061,-7,-84,-39
0.278499,-107,1649,8092,69,-71,-32
0.278637,-85,1673,8087,63,-45,-1
0.278778,-65,1614,8107,19,-109,-39
0.278916,-70,1620,8081,56,-71,-13
0.279055,-90,1602,8097,6,-26,-1
0.279194,-40,1704,8042,88,-128,-64
0.279334,-74,1678,8092,31,-45,-1
0.279473,-32,1618,8071,37,-71,-1
0.279612,-37,1675,8077,75,-71,-26
0.279752,-68,1636,8044,31,-90,-32
0.279891,-30,1684,8070,6,-58,-20
0.28003,-27,1630,8093,63,-77,-26
0.280169,-73,1579,8115,63,-64,12
0.280309,-51,1675,8070,19,-90,-39
0.280448,-78,1671,8114,107,-77,-32
0.280588,-88,1660,8161,-7,-39,-1
0.280727,-44,1637,8156,37,-109,-1
0.280866,-36,1622,8125,63,-71,-89
0.281006,-15,1633,8117,31,-71,6
0.281145,-37,1629,8096,37,-58,12
0.281284,-42,1634,8081,75,-77,-51
0.281424,-40,1664,8081,25,-84,12
0.281563,-115,1666,8175,19,-20,-13
0.281702,-63,1641,8100,75,-103,-77
0.281841,-71,1612,8154,37,-58,25
0.281981,-86,1614,8165,31,-58,-39
0.28212,-68,1651,8124,50,-103,-32
0.282259,-38,1628,8097,69,-33,6
0.282399,-70,1649,8102,19,-84,-51
0.282538,-34,1697,8080,63,-71,18
0.282677,-3,1656,8136,56,-77,-45
0.282817,-21,1647,8069,31,-71,-1
0.282956,-76,1604,8116,75,-96,-39
0.283095,-50,1633,8060,12,-64,-7
0.283235,-56,1632,8113,88,-103,-32
0.283376,-107,1663,8096,-25,-33,-20
0.283514,-137,1678,8100,88,-90,-32
0.283653,-133,1643,8102,37,-58,-13
0.283792,-94,1595,8123,50,-71,-13
0.283931,-64,1666,8151,31,-116,-32
0.284071,-44,1635,8113,63,-39,-13
0.28421,-87,1570,8178,50,-77,-26
0.284349,-75,1686,8107,44,-77,-32
0.284491,-80,1655,8135,25,-33,-13
0.284628,-100,1664,8153,31,-109,-13
0.284767,-12,1667,8101,81,-64,-64
0.284908,-85,1634,8098,-13,-26,25
0.285046,-91,1646,8063,88,-96,-20
0.285186,-46,1644,8106,6,-77,-39
0.285324,-40,1620,8097,63,-77,-20
0.285464,-24,1589,8114,50,-58,-1
0.285603,-68,1618,8086,75,-96,-39
0.285742,-70,1584,8095,6,-33,-13
0.285881,-69,1608,8065,81,-96,-13
0.286021,-24,1659,8061,31,-58,-20
0.28616,-69,1595,8049,75,-96,-45
0.286299,-50,1611,8070,0,-45,18
0.286439,-46,1648,8125,44,-84,-26
0.286578,-110,1641,8121,63,-58,-32
0.286719,-52,1643,8098,37,-64,-7
0.286857,-88,1627,8090,56,-116,-70
0.286996,-157,1642,8119,56,-26,50
0.287135,-92,1635,8120,12,-90,-64
0.287278,-85,1618,8106,94,-109,-39
0.287414,-91,1602,8043,12,-45,-7
0.287553,-60,1641,8077,50,-64,-20
0.287693,-58,1603,8099,31,-39,6
0.287832,-50,1632,8132,69,-128,-64
0.287971,-36,1637,8107,25,-26,25
0.288111,-25,1658,8102,50,-96,-58
0.28825,-74,1646,8072,37,-64,-20
0.288389,-74,1671,8068,44,-77,-1
0.288529,-105,1572,8026,44,-103,-58
0.288668,-73,1682,8081,56,-26,18
0.288807,-26,1673,8047,25,-96,-64
0.288947,-108,1577,8061,56,-64,-1
0.289086,-43,1628,8056,31,-77,-20
0.289225,-63,1598,8000,31,-90,-7
0.289364,-1,1606,8071,44,-45,-45
0.289504,-19,1620,7992,100,-109,-26
0.289643,-33,1581,7972,6,-52,-7
0.289782,-34,1605,8018,31,-33,-13
0.289922,-59,1546,8046,88,-116,-45
0.290061,-38,1602,8110,-13,-52,-7
0.2902,-36,1646,8130,94,-109,-20
0.29034,-55,1629,8109,0,-52,-1
0.290479,-66,1646,8092,100,-84,-58
0.290618,-91,1725,8125,-38,-33,12
0.290758,-54,1726,8196,69,-90,-39
0.290897,-36,1698,8329,44,-64,-13
0.291036,-41,1652,8416,63,-71,-39
0.291176,-43,1687,8378,44,-71,-20
0.291315,-71,1690,8400,44,-58,-7
0.291454,-86,1779,8352,37,-71,-45
0.291594,-102,1763,8286,25,-58,12
0.291733,-48,1768,8222,50,-77,-26
0.291872,12,1693,8236,50,-90,-32
0.292012,2,1663,8315,37,-96,-20
0.292151,-70,1520,8328,56,-64,6
0.29229,-45,1467,8276,6,-71,-39
0.292429,-52,1390,8214,69,-71,-7
0.292569,49,1409,8081,31,-58,-39
0.292708,54,1387,7912,44,-58,-1
0.292847,41,1327,7727,81,-103,-51
0.292987,62,1419,7596,25,-77,-20
0.293126,29,1505,7539,37,-7,-1
0.293265,-17,1546,7461,63,-141,-58
0.293405,-43,1635,7510,12,-13,31
0.293544,-108,1732,7475,25,-90,-39
0.293683,-139,1774,7675,100,-128,-32
0.293823,-264,1915,7878,6,-52,-26
0.293962,-344,1844,8002,19,-71,-20
0.294101,-329,1822,8240,37,-96,-13
0.294241,-299,1821,8456,44,-71,-39
0.29438,-233,1788,8570,56,-96,-32
0.294519,-280,1766,8566,6,-26,37
0.294659,-273,1758,8473,94,-103,-83
0.294798,-200,1794,8389,37,-20,31
0.294937,-157,1726,8341,63,-96,-39
0.295077,-56,1708,8238,50,-84,-32
0.295216,-1,1754,8135,-19,-7,18
0.295355,33,1776,8098,69,-109,-32
0.295494,84,1754,8107,44,-45,-26
0.295634,129,1708,8101,44,-96,-58
0.295773,152,1607,8246,31,-45,31
0.295912,118,1538,8303,44,-84,-39
0.296052,84,1483,8398,19,-90,-13
0.296191,82,1496,8545,44,-64,-13
0.296331,73,1506,8564,44,-90,-32
0.29647,85,1466,8611,0,-52,-13
0.296609,77,1460,8508,81,-109,-26
0.296748,76,1334,8358,19,-33,-20
0.296888,36,1314,8154,69,-109,-7
0.297027,66,1422,7921,81,-7,-58
0.297166,54,1400,7698,19,-103,12
0.297306,2,1505,7532,50,-77,-39
0.297445,-14,1508,7403,81,-64,-51
0.297584,20,1556,7315,0,-71,25
0.297724,-74,1672,7441,81,-84,-77
0.297863,-139,1770,7511,25,-58,25
0.298002,-231,1796,7660,37,-109,-51
0.298142,-289,1822,7774,69,-64,-39
0.298281,-362,1878,7979,31,-90,-7
0.29842,-426,1876,8124,37,-58,-26
0.29856,-448,1930,8201,19,-90,-20
0.298699,-438,1825,8210,56,-71,-7
0.298838,-450,1824,8249,44,-77,-7
0.298977,-378,1906,8260,50,-58,-39
0.299117,-294,1838,8156,19,-58,18
0.299256,-274,1776,8140,44,-84,-51
0.299395,-176,1773,8074,63,-58,12
0.299535,-82,1761,8068,31,-84,-45
0.299674,-9,1710,8099,37,-26,6
0.299813,93,1678,8090,12,-77,-7
0.299953,194,1632,8193,63,-77,-32
0.300092,228,1558,8297,31,-90,-26
0.300231,243,1538,8403,25,-84,-1
0.300371,225,1496,8465,25,-39,-32
0.30051,278,1406,8487,50,-77,-13
0.300649,231,1467,8459,69,-103,-26
0.300789,153,1363,8446,-13,-45,12
0.300928,218,1368,8461,69,-84,-77
0.301067,172,1376,8314,50,-45,18
0.301207,92,1366,8277,88,-90,-39
0.301346,99,1496,8165,0,-26,18
0.301486,121,1585,8143,75,-90,-58
0.301625,113,1647,8028,56,-77,-39
0.301764,9,1624,7983,50,-64,-13
0.301903,-2,1673,7975,56,-58,-39
0.302042,-106,1681,7990,37,-71,-26
0.302182,-160,1780,8034,75,-77,-45
0.302321,-194,1759,8093,6,-77,31
0.30246,-257,1835,8068,56,-45,-45
0.3026,-314,1785,8131,56,-109,-26
0.302739,-360,1824,8145,37,-39,-13
0.302878,-427,1822,8120,37,-109,-45
0.303018,-453,1791,8060,25,-39,-7
0.303157,-429,1832,7976,44,-71,-7
0.303296,-364,1802,7919,81,-96,-58
0.303436,-333,1773,7816,6,-39,18
0.303575,-273,1739,7755,75,-90,-32
0.303714,-184,1710,7662,12,-58,-45
0.303854,-102,1636,7636,50,-71,18
0.303993,-102,1618,7698,25,-71,-39
0.304132,-13,1583,7714,37,-64,-26
0.304272,-17,1550,7750,25,-77,-1
0.304411,6,1540,7860,44,-52,-39
0.30455,88,1570,7950,37,-109,-13
0.30469,35,1494,8048,44,-52,18
0.304829,24,1541,8072,50,-109,-70
0.304968,98,1525,8150,31,-52,-32
0.305107,107,1562,8204,50,-64,37
0.305247,6,1559,8234,31,-71,-58
0.305386,107,1524,8290,63,-64,-39
0.305525,30,1510,8312,12,-77,-7
0.305665,54,1608,8279,44,-77,-20
0.305804,90,1585,8317,69,-77,-13
0.305943,75,1598,8285,0,-58,-32
0.306083,24,1573,8254,69,-96,-32
0.306223,46,1583,8376,44,-58,-13
0.306361,51,1613,8375,31,-77,-1
0.306501,-23,1661,8317,63,-71,-39
0.30664,3,1625,8316,12,-96,-45
0.306779,-62,1677,8280,75,-45,-20
0.306919,-64,1636,8277,0,-90,-1
0.307058,-126,1705,8254,63,-71,-45
0.307198,-156,1669,8263,37,-58,-1
0.307337,-155,1704,8194,63,-64,-70
0.307476,-139,1750,8113,-7,-64,37
0.307615,-175,1663,8074,88,-90,-64
0.307755,-179,1632,8043,37,-64,-1
0.307894,-147,1613,7967,63,-84,-45
0.308033,-125,1642,7948,37,-77,-13
0.308172,-89,1647,7916,37,-39,-20
0.308312,-120,1663,7892,37,-90,-7
0.308451,-110,1609,7923,50,-71,-32
0.30859,-62,1629,7914,44,-52,-1
0.30873,-80,1640,7957,56,-77,-45
0.308869,-73,1658,7956,44,-52,-13
0.309008,-148,1661,7998,25,-71,-20
0.309148,-141,1661,8013,56,-52,-51
0.309287,-149,1660,8010,63,-103,6
0.309426,-143,1657,8083,-13,-45,-20
0.309566,-122,1631,8130,50,-58,18
0.309705,-149,1655,8139,75,-109,-70
0.309844,-146,1703,8086,12,-45,-7
0.309984,-107,1670,8130,50,-84,6
0.310123,-81,1605,8135,37,-64,-58
0.310262,-92,1582,8087,25,-84,-7
0.310402,-122,1573,8013,50,-71,-32
0.310541,-27,1597,8024,50,-71,-20
0.31068,-25,1578,7995,31,-52,-13
0.31082,-38,1640,8022,56,-96,-26
0.310959,-59,1612,7938,37,-45,-26
0.311098,-57,1612,7912,31,-52,-1
0.311238,-71,1613,7965,75,-90,-45
0.311377,-45,1676,8017,0,-64,-7
0.311516,-92,1680,7980,75,-96,-20
0.311655,-52,1690,8102,56,-71,-39
0.311795,-66,1707,8148,-7,-84,-32
0.311934,-61,1656,8208,56,-45,18
0.312073,-61,1700,8254,50,-116,-51
0.312213,-96,1696,8296,19,-26,6
0.312352,-31,1672,8270,88,-90,-32
0.312491,-4,1668,8293,31,-58,-39
0.312631,-40,1642,8280,6,-77,-1
0.31277,-69,1661,8250,107,-64,-51
0.312909,-69,1634,8223,-13,-64,-7
0.313049,21,1653,8139,75,-77,-13
0.313188,21,1632,8091,31,-77,-58
0.313327,-13,1620,8061,50,-52,31
0.313467,3,1585,8021,37,-84,-39
0.313606,46,1591,8047,44,-64,-20
0.313745,25,1622,8010,63,-64,-7
0.313885,-25,1586,7974,44,-122,-58
0.314024,-82,1578,7989,31,-33,-26
0.314163,-62,1543,8013,37,-84,6
0.314303,-114,1514,8066,31,-45,-39
0.314442,-46,1614,8013,63,-109,-13
0.314581,-118,1644,8032,50,-64,-26
0.31472,-124,1648,8084,50,-90,-26
0.31486,-197,1652,8069,25,-52,-32
0.314999,-151,1609,8082,12,-33,12
0.315138,-168,1689,8008,37,-103,-26
0.315278,-141,1711,7987,69,-96,-64
0.315418,-170,1673,8001,31,-33,44
0.315556,-148,1667,8013,69,-109,-64
0.315696,-112,1723,8092,44,-45,-13
0.315837,-142,1724,8093,19,-58,6
0.315974,-142,1720,8169,44,-84,-51
0.316116,-117,1763,8192,37,-84,-20
0.316253,-83,1720,8227,44,-39,6
0.316395,-68,1751,8257,50,-77,-45
0.316531,-83,1675,8283,37,-64,-45
0.316672,-80,1661,8340,12,-64,25
0.31681,-57,1615,8384,69,-64,-51
0.316951,3,1688,8318,37,-90,-1
0.317089,-8,1644,8293,50,-84,-39
0.317228,-24,1595,8292,44,-26,18
0.317368,25,1598,8230,63,-116,-39
0.317507,55,1555,8112,50,6,-20
0.317646,98,1492,8107,37,-128,-39
0.317787,58,1536,8084,25,-45,25
0.317925,-13,1520,8002,44,-90,-51
0.318064,3,1555,8016,37,-58,6
0.318203,-35,1598,8012,56,-71,-45
0.318343,-80,1572,8011,37,-90,-20
0.318483,-53,1569,8017,25,-84,-32
0.318622,-75,1593,8012,63,-58,-7
0.318762,-129,1630,8067,31,-71,-32
0.3189,-116,1672,8032,44,-84,-13
0.319039,-109,1708,8067,63,-96,-45
0.31918,-162,1685,8002,-13,-20,31
0.319318,-202,1681,8018,138,-103,-77
0.319457,-138,1741,7947,-19,-64,-7
0.319597,-181,1730,7964,56,-52,-7
0.319736,-189,1723,7967,19,-96,-32
0.319875,-151,1734,7909,69,-58,-20
0.320015,-153,1754,7893,69,-84,-26
0.320154,-122,1696,7926,-19,-45,-32
0.320293,-106,1660,7963,81,-71,-7
0.320433,-125,1711,7940,25,-109,-26
0.320572,-102,1659,7946,50,-58,-13
0.320711,-75,1630,8056,12,-52,-32
0.32085,-8,1650,8075,88,-103,-20
0.32099,-74,1612,8073,0,-26,-13
0.32113,-58,1605,8111,88,-135,-39
0.321268,5,1661,8124,-13,-33,-13
0.321413,-29,1627,8133,75,-58,-13
0.321547,-9,1639,8080,31,-84,-20
0.321686,70,1576,8126,37,-71,-20
0.321827,47,1604,8141,37,-45,-1
0.321965,71,1541,8114,56,-116,-58
0.322106,8,1619,8123,-13,-13,12
0.322244,63,1581,8142,63,-109,-51
0.322383,32,1566,8223,44,-45,-7
0.322522,63,1542,8273,25,-77,-39
0.322661,22,1632,8275,19,-64,6
0.322801,-47,1663,8200,69,-71,-26
0.32294,-28,1600,8266,50,-96,-45
0.323079,-47,1650,8254,31,-39,18
0.323219,-85,1645,8192,75,-109,-58
0.323358,-60,1672,8185,56,-45,-1
0.323497,-102,1661,8178,19,-64,-26
0.323637,-134,1694,8155,44,-71,-26
0.323776,-133,1713,8090,44,-58,-7
0.323915,-154,1679,8048,63,-64,-13
0.324055,-89,1679,7994,37,-96,-39
0.324195,-113,1657,7999,50,-58,-13
0.324333,-151,1657,8025,25,-77,-7
0.324473,-127,1675,8025,94,-103,-70
0.324612,-174,1676,8008,-7,-7,50
0.324751,-187,1669,8040,88,-141,-64
0.324891,-100,1674,8013,50,-7,-26
0.325031,-102,1685,8017,31,-116,-26
0.325169,-147,1658,8068,25,-45,-7
0.325309,-101,1689,8107,81,-96,-39
0.325448,-123,1751,8071,31,-58,-13
0.325589,-103,1683,8071,25,-109,-13
0.325727,-146,1659,8129,50,6,18
0.325866,-102,1668,8086,63,-135,-64
0.326005,-84,1651,8159,31,-45,-1
0.32615,-38,1621,8177,69,-77,-51
0.326284,-95,1609,8134,31,-77,-13
0.326423,-18,1594,8186,-7,-20,12
0.326564,11,1626,8205,94,-103,-39
0.326702,39,1617,8205,12,-71,-26
0.326841,-4,1660,8182,44,-96,-45
0.326983,0,1603,8173,50,-26,31
0.32712,8,1576,8115,81,-90,-64
0.327259,26,1618,8158,12,-71,31
0.327399,-28,1611,8111,25,-77,-77
0.327538,10,1640,8037,31,-26,25
0.327679,45,1588,8012,69,-84,-64
0.327816,32,1608,8032,75,-90,-7
0.327956,-44,1634,8049,31,-45,-20
0.328095,-1,1631,7946,25,-77,-32
0.328234,-46,1710,8020,44,-58,-7
0.328376,-14,1685,7977,69,-71,-39
0.328513,-74,1613,7999,37,-71,-1
0.328652,-106,1605,8062,56,-71,-13
0.328792,-132,1675,8036,12,-39,-45
0.328931,-165,1690,7982,69,-122,-20
0.329071,-139,1718,8032,12,-39,-20
0.329209,-121,1679,8029,50,-71,-13
0.329349,-109,1703,8028,56,-71,-39
0.329488,-59,1739,8016,0,-33,12
0.329627,-92,1684,8072,75,-96,-51
0.329767,-114,1664,8036,37,-58,-1
0.329906,-128,1716,8078,25,-58,-32
0.330045,-136,1695,8061,50,-84,-20
0.330186,-111,1636,8120,19,-84,-13
0.330324,-29,1641,8138,31,-39,-7
0.330464,-49,1648,8134,75,-45,-7
0.330603,-50,1655,8204,25,-147,-64
0.330742,-104,1656,8144,50,-20,-1
0.330882,-107,1649,8144,19,-64,-26
0.331023,11,1601,8212,44,-103,-13
0.33116,41,1596,8238,44,-33,-32
0.331301,38,1644,8170,44,-103,-26
0.331439,13,1630,8264,19,-26,12
0.331578,-36,1630,8247,50,-103,-70
0.331717,-20,1669,8187,50,-39,-13
0.331857,-46,1644,8142,31,-71,12
0.331996,-57,1639,8156,31,-90,-77
0.332136,-97,1603,8152,56,-26,37
0.332275,-28,1647,8197,50,-90,-77
0.332414,-42,1615,8173,31,-90,6
0.332554,-85,1625,8150,37,-39,-51
0.332693,-64,1655,8100,81,-116,-32
0.332832,-118,1697,8114,25,-52,12
0.332971,-123,1612,8067,50,-96,-45
0.333111,-131,1643,8080,37,-71,-7
0.33325,-97,1692,8003,44,-45,-7
0.333389,-152,1691,8021,44,-84,-45
0.333529,-148,1636,8015,56,-71,-7
0.333669,-124,1614,8019,69,-96,-45
0.333807,-153,1641,8038,0,-26,6
0.333947,-142,1692,8046,75,-64,-26
0.334086,-159,1662,8040,63,-109,-58
0.334225,-203,1632,8043,-7,-71,6
0.334364,-131,1683,8089,88,-58,-7
0.334504,-117,1682,8067,19,-45,-1
0.334646,-74,1663,8055,63,-116,-70
0.334782,-94,1645,8119,31,-39,31
0.334922,-109,1648,8099,25,-96,-45
0.335061,-58,1671,8116,75,-77,-51
0.3352,-23,1573,8099,31,-33,18
0.33534,-61,1637,8085,25,-96,-39
0.335479,-80,1592,8123,37,-90,12
0.335618,-40,1702,8135,63,-84,-45
0.335758,-10,1592,8124,25,-77,-20
0.335897,27,1639,8162,56,-58,-13
0.336036,54,1713,8198,37,-77,-13
0.336176,-34,1655,8227,37,-96,-70
0.336315,-19,1604,8161,44,-39,18
0.336454,8,1574,8158,44,-77,-20
0.336594,15,1605,8205,-7,-71,-13
0.336733,-33,1622,8184,113,-64,-45
0.336872,-27,1619,8145,25,-84,-32
0.337012,-32,1670,8125,19,-58,-7
0.337151,-45,1650,8142,63,-45,18
0.33729,-19,1633,8091,63,-116,-70
0.337429,-103,1609,8070,6,-45,6
0.337569,-64,1676,8086,81,-96,-70
0.337708,-90,1685,8001,37,-45,-1
0.337849,-57,1656,8069,12,-64,12
0.337987,-121,1706,8091,107,-96,-70
0.338126,-54,1711,8012,-19,-58,12
0.338265,-133,1693,8000,100,-103,-58
0.338405,-136,1694,8076,19,-52,6
0.338544,-121,1672,8023,75,-84,-45
0.338683,-153,1638,8086,12,-58,-20
0.338822,-133,1674,8096,75,-52,-1
0.338962,-123,1635,8064,12,-90,-26
0.339101,-116,1634,8115,56,-64,-7
0.33924,-102,1595,8098,44,-58,-20
0.33938,-57,1622,8071,31,-84,-7
0.339519,-106,1635,8012,94,-90,-70
0.339659,-46,1657,8007,-13,-39,31
0.339799,-34,1694,8081,69,-90,-39
0.339937,-101,1647,8103,12,-58,-32
0.340076,-69,1649,8130,50,-96,-1
0.340216,-93,1656,8127,63,-20,-1
0.340355,-22,1629,8090,44,-135,-51
0.340494,-48,1583,8135,31,-58,-13
0.340634,-78,1619,8161,31,-52,-32
0.340773,-104,1649,8245,63,-84,-7
0.340914,-55,1639,8221,56,-84,-32
0.341052,-47,1632,8194,19,-20,-13
0.341191,-24,1643,8173,63,-103,-39
0.341332,1,1620,8160,12,-77,-20
0.34147,-31,1654,8148,37,-52,-7
0.34161,-51,1646,8117,56,-58,-45
0.341748,9,1652,8136,19,-90,18
0.341888,-21,1641,8072,50,-58,-45
0.342027,-70,1642,8068,50,-77,-13
0.342166,-81,1679,8010,25,-90,-20
0.342306,-72,1683,8036,37,-52,-20
0.342445,-72,1704,8074,69,-84,-20
0.342584,-95,1703,8012,37,-39,-20
0.342724,-117,1656,8080,31,-90,-20
0.342863,-142,1657,8036,88,-84,-70
0.343002,-53,1708,8055,-7,-45,44
0.343142,-74,1706,8107,69,-90,-64
0.343281,-23,1698,8082,12,-45,-1
0.34342,-59,1673,7968,56,-109,-13
0.34356,-64,1632,7964,31,-26,-26
0.343701,-13,1662,8010,25,-109,-45
0.343838,-75,1642,7978,75,-45,-1
0.343978,-127,1619,7975,19,-96,-26
0.344121,-8,1646,7990,44,-39,-32
0.344256,-83,1637,7985,56,-77,-7
0.344395,-34,1625,8014,37,-64,-20
0.344535,-7,1640,7973,56,-109,-39
0.344676,-82,1639,8021,25,-45,-20
0.344813,-88,1680,8018,37,-77,-20
0.344953,-102,1700,7988,44,-39,-7
0.345092,-63,1681,8070,31,-77,-39
0.345232,-42,1705,8154,56,-45,12
0.345371,-40,1694,8126,37,-103,-45
0.34551,-105,1624,8158,56,-39,-20
0.345649,-45,1637,8118,25,-109,-39
0.345789,26,1688,8178,81,-33,12
0.345928,-21,1635,8184,37,-71,-51
0.346067,-49,1631,8135,50,-103,-1
0.346207,-98,1668,8138,19,-33,-1
0.346346,-40,1626,8161,69,-96,-70
0.346485,-19,1624,8146,56,-77,-13
0.346625,-51,1625,8104,44,-52,18
0.346764,-16,1632,8043,56,-64,-45
0.346905,-28,1585,8008,19,-84,-13
0.347043,-12,1546,8056,81,-39,6
0.347182,-20,1606,8019,25,-122,-51
0.347322,-19,1598,8072,37,-39,-7
0.34746,-66,1657,8125,19,-90,-26
0.3476,-91,1650,8072,69,-71,-7
0.347739,-105,1670,8111,19,-58,-51
0.347878,-59,1687,8103,75,-64,-7
0.348018,-96,1710,8182,12,-58,-32
0.348158,-165,1712,8168,50,-71,-26
0.348296,-131,1730,8184,56,-116,-20
0.348436,-160,1674,8201,19,-39,-20
0.348575,-112,1674,8163,81,-84,-45
0.348714,-158,1687,8206,31,-33,6
0.348853,-121,1621,8178,44,-84,-7
0.348993,-21,1664,8111,63,-103,-51
0.349132,-96,1618,8138,31,-33,18
0.349271,-145,1567,8045,56,-90,-77
0.349411,-45,1624,8060,37,-77,18
0.34955,-40,1597,8028,69,-39,-26
0.349689,-47,1571,8010,12,-84,-32
0.34983,-28,1574,7968,94,-71,-7
0.349969,-62,1637,8004,19,-84,-45
0.350107,-44,1669,7997,31,-77,-7
0.350248,-67,1613,8017,50,-64,-20
0.350388,-106,1635,8132,25,-58,-13
0.350525,-118,1621,8136,56,-90,-32
0.350666,-111,1629,8122,56,-45,-7
0.350804,-87,1648,8153,25,-96,-39
0.350943,-92,1689,8177,69,-45,-7
0.351083,-87,1652,8198,6,-64,-26
0.351224,-49,1615,8124,81,-96,-20
0.351361,-51,1673,8083,-7,-45,-26
0.3515,7,1677,8025,63,-77,-39
0.35164,3,1657,8029,50,-84,-7
0.351781,-77,1676,8036,31,-45,-20
0.351919,-114,1701,8052,44,-71,6
0.352058,-25,1696,8110,31,-96,-45
0.352197,-49,1711,8120,31,-64,-13
0.352337,-50,1733,8118,25,-64,-39
0.352476,-84,1652,8163,50,-84,6
0.352616,-54,1669,8214,56,-84,-32
0.352755,-106,1618,8253,25,-77,-39
0.352894,-75,1586,8239,44,-71,-26
0.353033,-8,1665,8172,37,-45,6
0.353173,-67,1668,8085,63,-90,-26
0.353312,-37,1556,8107,37,-77,-39
0.353451,-7,1621,8032,56,-71,-20
0.35359,-19,1575,8004,31,-84,-1
0.35373,-14,1589,8006,37,-39,-13
0.353869,-1,1599,7989,88,-135,-51
0.354008,-28,1649,7982,-13,-13,31
0.354148,-38,1652,7968,63,-122,-64
0.354287,-48,1688,7954,63,-26,-7
0.354427,-55,1630,8000,19,-90,-39
0.354566,-67,1638,8010,37,-52,-7
0.354705,-111,1621,8022,50,-96,-51
0.354844,-139,1628,8049,50,-64,6
0.354983,-151,1565,7976,25,-71,-26
0.355123,-219,1609,8022,69,-58,-26
0.355262,-111,1672,8042,6,-84,-13
0.355402,-52,1694,8054,37,-84,-20
0.355541,-122,1694,7974,56,-90,-20
0.35568,-121,1717,7980,44,-20,-32
0.35582,-162,1769,8032,69,-96,-7
0.355959,-130,1708,8022,19,-58,-39
0.356098,-114,1738,8051,94,-90,-13
0.356238,-108,1703,8180,-13,-52,-1
0.356376,-59,1697,8215,88,-116,-20
0.356516,-11,1681,8281,25,-58,-58
0.356656,-38,1674,8272,19,-84,-7
0.356795,-14,1627,8267,50,-58,-20
0.356934,-45,1609,8276,56,-39,-20
0.357074,-40,1622,8298,25,-109,-13
0.357213,-38,1621,8266,63,-52,-26
0.357353,-13,1582,8271,75,-109,-45
0.357491,3,1606,8202,50,6,31
0.357632,-17,1590,8176,12,-128,-77
0.35777,42,1566,8110,88,-26,6
0.35791,92,1560,8158,25,-116,-7
0.358049,102,1527,8109,31,-45,-51
0.358188,53,1550,8090,50,-64,-26
0.358327,30,1638,8062,12,-77,25
0.358467,-26,1626,8099,75,-122,-64
0.358606,-12,1654,8048,44,-52,-32
0.358745,-40,1638,8107,37,-84,25
0.358884,-80,1637,8118,56,-71,-45
0.359024,-127,1665,8155,25,-71,-26
0.359163,-160,1660,8167,50,-90,12
0.359302,-176,1664,8080,44,-39,-20
0.359443,-163,1725,8078,50,-109,-39
0.359581,-143,1673,8050,44,-45,-26
0.359721,-175,1688,7996,56,-84,-32
0.35986,-175,1713,7988,31,-71,-1
0.359999,-145,1696,8009,63,-71,6
0.360138,-118,1638,7924,25,-45,-45
0.360278,-75,1704,7923,88,-116,-32
0.360417,-136,1667,7926,-19,-33,6
0.360558,-101,1658,7901,75,-116,-51
0.360696,-125,1652,7948,37,-58,18
0.360835,-60,1701,7933,63,-71,-64
0.360974,-130,1649,7986,6,-64,18
0.361117,-65,1624,8060,19,-64,-26
0.361253,-25,1670,8036,75,-71,-7
0.361393,-43,1565,8044,44,-84,-45
0.361532,-18,1594,8093,12,-58,-7
0.361671,-29,1614,8081,56,-64,-39
0.36181,2,1569,8102,-13,-64,-13
0.361949,-5,1618,8154,63,-96,-45
0.362088,39,1605,8099,31,-33,25
0.362228,60,1607,8090,50,-109,-58
0.362368,28,1663,8114,56,-71,-39
0.362507,44,1599,8121,25,-39,-1
0.362646,34,1608,8174,56,-71,-20
0.362785,-11,1648,8129,63,-109,-26
0.362925,-10,1664,8199,31,-58,-20
0.363064,-38,1658,8235,37,-71,-39
0.363204,-10,1674,8226,44,-77,-13
0.363343,-73,1639,8269,-19,-58,-20
0.363482,-88,1636,8273,94,-122,-39
0.363621,-60,1640,8267,6,-7,12
0.363761,-65,1669,8269,88,-103,-58
0.3639,-68,1667,8214,19,-77,-7
0.364039,-91,1649,8138,75,-20,-1
0.364179,-100,1615,8158,25,-116,-51
0.364318,-67,1687,8130,63,-64,6
0.364459,-49,1625,8096,-7,-45,-26
0.364597,-120,1623,8045,63,-84,-26
0.364736,-102,1662,8041,44,-26,-13
0.364875,-78,1670,8067,56,-128,-39
0.365016,-104,1644,8048,12,-58,-7
0.365154,-121,1664,8048,25,-45,6
0.365293,-65,1703,8047,88,-90,-58
0.365435,-85,1687,7992,6,-64,-39
0.365572,-167,1608,8058,56,-64,-7
0.365711,-103,1716,8015,31,-103,-32
0.36585,-73,1686,8051,63,-33,-39
0.36599,-104,1677,8058,-13,-109,12
0.366129,-74,1684,8048,56,-39,-26
0.366269,-140,1634,8080,63,-77,-51
0.366408,-101,1646,8034,-13,-64,6
0.366547,-86,1628,8052,69,-84,-7
0.366687,-65,1623,8092,25,-84,-45
0.366827,-59,1686,8103,63,-58,-32
0.366965,-78,1668,8086,31,-84,-7
0.367104,-43,1676,8115,56,-64,-7
0.367244,-25,1671,8125,12,-90,-26
0.367383,-104,1675,8059,81,-45,-20
0.367522,-78,1642,8064,-13,-90,-1
0.367662,-86,1619,8069,63,-45,-45
0.367801,-70,1676,8127,63,-96,-51
0.36794,-81,1608,8146,-7,-33,31
0.36808,-48,1615,8089,81,-96,-70
0.368219,-66,1639,8076,6,-52,31
0.368358,-38,1650,8088,50,-84,-26
0.368497,-32,1688,8121,50,-116,-39
0.368637,-61,1617,8093,37,-39,-20
0.368776,-12,1672,8061,44,-90,-39
0.368915,11,1655,8044,44,-52,12
0.369055,-21,1661,8046,56,-71,-58
0.369194,-23,1660,8034,12,-58,31
0.369333,34,1618,8037,63,-122,-64
0.369473,-5,1569,7976,37,-52,-13
0.369612,-64,1608,7996,44,-58,-45
0.369751,-12,1610,7988,37,-71,25
0.369891,0,1594,7975,37,-39,-39
0.370031,-59,1570,8070,63,-116,-26
0.370169,1,1639,8004,31,-52,-51
0.37031,-89,1629,8014,50,-90,18
0.370448,-125,1614,8062,6,-58,-39
0.370587,-127,1674,8090,81,-84,12
0.370728,-79,1642,8080,44,-77,-58
0.370866,-80,1685,8085,0,-52,-13
0.371006,-93,1664,8070,50,-33,6
0.371145,-90,1682,8173,63,-103,-64
0.371284,-129,1687,8143,50,-84,6
0.371424,-117,1687,8162,6,-52,-58
0.371568,-53,1752,8129,75,-64,12
0.371702,-67,1775,8171,37,-77,-26
0.371841,-25,1706,8202,19,-52,-13
0.371981,-40,1705,8226,50,-77,-32
0.37212,-88,1630,8262,63,-64,-26
0.372259,-75,1622,8203,25,-96,-20
0.372399,-18,1662,8206,50,-45,-1
0.372538,-74,1627,8216,63,-96,-32
0.372677,-23,1619,8234,37,-77,-26
0.372817,12,1708,8242,12,-33,-1
0.372956,-35,1564,8229,75,-84,-64
0.373095,-35,1618,8234,37,-39,12
0.373235,-96,1634,8247,31,-77,-51
0.373376,-40,1618,8155,63,-45,6
0.373513,7,1628,8130,50,-96,-58
0.373652,-59,1623,8128,12,-71,-7
0.373792,-66,1674,8149,56,-52,-32
0.373931,-90,1608,8141,75,-84,-7
0.37407,-14,1610,8068,19,-52,-32
0.37421,-79,1620,8044,50,-103,-32
0.374351,-80,1640,8043,75,-52,-20
0.374488,-72,1616,7960,31,-96,-58
0.374628,-136,1644,7965,31,-58,18
0.374767,-133,1666,8001,63,-71,-20
0.374907,-105,1723,7988,19,-64,-51
0.375045,-91,1669,7968,44,-90,-7
0.375185,-72,1632,7970,63,-45,-7
0.375324,-139,1681,7953,50,-33,-64
0.375463,-116,1692,7990,25,-128,25
0.375603,-155,1665,8007,44,-39,-51
0.375742,-84,1636,7998,19,-71,18
0.375882,-89,1620,8034,50,-90,-51
0.376021,-153,1671,7981,44,-52,-20
0.37616,-97,1647,8006,56,-71,-32
0.376299,-95,1659,8001,-19,-64,31
0.376439,-112,1651,8063,100,-77,-77
0.376578,-116,1632,8082,50,-71,-1
0.376717,-10,1613,8120,-7,-58,-13
0.376857,-51,1625,8089,81,-90,-26
0.376996,-9,1610,8114,44,-52,-7
0.377135,-21,1633,8168,25,-71,-7
0.377275,-21,1602,8127,19,-58,-39
0.377414,42,1557,8145,88,-103,-32
0.377553,-16,1617,8118,6,-39,12
0.377693,16,1567,8120,37,-64,-26
0.377832,-9,1584,8145,37,-77,-39
0.377971,-46,1609,8176,56,-84,-26
0.378111,-2,1575,8118,25,-52,18
0.37825,-1,1632,8149,69,-109,-32
0.378389,35,1618,8127,-13,-58,-20
0.378528,-64,1620,8146,88,-58,-39
0.378668,-9,1668,8154,56,-84,-51
0.378807,-56,1684,8147,12,-58,6
0.378946,-69,1551,8108,37,-71,-20
0.379086,-28,1629,8121,75,-71,-32
0.379225,-30,1635,8122,19,-77,18
0.379364,-54,1634,8127,50,-64,-58
0.379504,-39,1635,8139,63,-77,6
0.379643,-93,1686,8068,-19,-64,-7
0.379783,-92,1691,8028,56,-58,-58
0.379922,-102,1641,8060,75,-33,6
0.380061,-146,1678,8092,-7,-103,-7
0.3802,-123,1686,8057,94,-52,-32
0.38034,-120,1666,8102,37,-77,-20
0.380479,-156,1642,8134,19,-45,-26
0.380618,-127,1718,8126,56,-90,-13
0.380758,-136,1669,8094,0,-64,-32
0.380897,-80,1633,8113,63,-58,-7
0.381037,-70,1610,8122,56,-64,-32
0.381176,-54,1720,8110,19,-77,-20
0.381315,-66,1677,8139,31,-84,-26
0.381454,-54,1664,8096,31,-64,6
0.381593,-70,1645,8128,63,-71,-70
0.381733,-81,1601,8114,44,-77,37
0.381873,-115,1600,8120,56,-52,-45
0.382011,-48,1615,8162,37,-90,-32
0.382151,-72,1685,8120,63,-96,-20
0.38229,-48,1652,8125,37,-52,12
0.382429,-67,1617,8152,31,-71,-70
0.382569,-39,1628,8124,31,-64,44
0.382708,-42,1619,8127,81,-84,-51
0.382848,-10,1615,8106,63,-84,-20
0.382987,-23,1623,8054,50,-45,-13
0.383126,-50,1596,8050,25,-96,-26
0.383265,-87,1660,8097,75,-109,-45
0.383405,-40,1676,8073,44,-58,6
0.383544,-70,1673,8061,12,-71,25
0.383683,-132,1630,8073,63,-39,-83
0.383823,-84,1613,8051,63,-116,-1
0.383962,-70,1658,7998,37,-45,-13
0.384101,-28,1663,8038,69,-90,-45
0.384241,-96,1653,8053,0,-39,6
0.38438,-102,1649,8070,56,-90,-7
0.384519,-84,1593,8047,88,-96,-77
0.384659,-66,1678,8037,-7,-58,44
0.384798,-105,1667,8064,88,-71,-83
0.384937,-108,1686,8062,0,-45,44
0.385077,-135,1676,8024,94,-103,-70
0.385216,-104,1631,8056,6,-71,18
0.385355,-35,1662,8017,63,-52,-58
0.385495,-66,1629,8039,25,-77,6
0.385634,-83,1697,8098,50,-64,-39
0.385773,-50,1699,8074,63,-77,-51
0.385913,-63,1661,8067,25,-71,44
0.386052,-12,1642,8011,50,-58,-39
0.386191,-29,1694,8063,50,-64,-26
0.38633,-46,1679,8077,19,-84,-20
0.38647,-18,1673,8125,81,-64,6
0.386609,-79,1620,8080,31,-103,-77
0.386748,-22,1601,8150,12,-58,25
0.386888,-31,1590,8126,94,-84,-45
0.387027,-42,1621,8102,37,-64,-7
0.387166,14,1611,8098,12,-58,-7
0.387306,-69,1632,8144,75,-103,-39
0.387445,1,1678,8154,63,-77,-39
0.387584,-55,1610,8101,12,-45,-7
0.387724,-45,1640,8126,56,-71,6
0.387863,-57,1670,8166,37,-52,-1
0.388002,-4,1656,8171,25,-71,-39
0.388141,-58,1665,8143,94,-84,-39
0.388281,-110,1682,8165,6,-58,-26
0.388422,-24,1605,8157,63,-77,12
0.388562,-35,1623,8135,88,-90,-32
0.388699,-62,1634,8134,-13,-33,-51
0.388838,-21,1663,8104,44,-84,18
0.388977,-77,1630,8104,44,-96,-32
0.389116,-97,1625,8118,75,-58,-26
0.389256,-98,1610,8074,31,-64,-32
0.389395,-66,1666,7992,69,-77,12
0.389535,-119,1650,8068,37,-116,-51
0.389676,-109,1601,8085,31,-58,-7
0.389815,-97,1659,8084,56,-71,-26
0.389954,-95,1660,8048,63,-90,-26
0.390093,-96,1660,8034,-7,-26,6
0.390231,-113,1668,8043,69,-109,-39
0.390371,-125,1643,8052,56,-58,-20
0.390512,-97,1643,8056,44,-64,-20
0.390649,-99,1646,8067,0,-52,-13
0.390788,-112,1619,8020,63,-52,-13
0.390928,-53,1656,8064,44,-77,-20
0.391067,-143,1688,8086,56,-84,-45
0.391208,-102,1652,8094,37,-58,-7
0.391347,-54,1618,8031,63,-64,-64
0.391485,-62,1603,8095,-7,-71,18
0.391625,-45,1623,8066,81,-58,-20
0.391764,-42,1683,8126,19,-45,-39
0.391903,-90,1604,8118,69,-84,-32
0.392043,-52,1634,8134,37,-71,12
0.392182,-19,1642,8095,12,-45,-39
0.392321,-72,1598,8145,132,-116,-51
0.39246,-102,1664,8122,-13,-33,12
0.3926,-73,1659,8130,19,-52,-13
0.392739,-87,1602,8088,69,-116,-32
0.392878,4,1672,8122,50,-64,-7
0.393018,-27,1667,8120,37,-71,-20
0.393157,-19,1638,8076,44,-64,-51
0.393296,0,1636,8068,37,-84,-1
0.393436,-59,1647,8099,75,-90,-45
0.393575,-70,1639,8076,37,-45,-13
0.393714,0,1660,8119,25,-71,-7
0.393854,23,1650,8146,50,-90,-39
0.393993,1,1609,8105,63,-77,-20
0.394132,-12,1620,8081,6,-26,-1
0.394275,-65,1636,8078,75,-103,-32
0.394411,-27,1644,8036,31,-58,-26
0.39455,-66,1619,8020,69,-84,-51
0.39469,-48,1670,8041,12,-64,25
0.394829,-39,1625,8011,56,-90,-51
0.394968,-83,1614,7981,37,-96,-20
0.395108,3,1641,7985,12,-26,-1
0.395247,-92,1662,8032,75,-103,-13
0.395386,-110,1645,8111,25,-64,-39
0.395525,-78,1679,8071,44,-58,-13
0.395665,-75,1615,8067,56,-77,-32
0.395804,-160,1615,8089,31,-96,-45
0.395943,-89,1624,8059,25,-45,31
0.396083,-65,1641,8104,69,-90,-32
0.396222,-72,1648,8073,31,-64,-58
0.396361,-108,1611,8063,63,-64,6
0.396501,-88,1710,8082,31,-77,-13
0.39664,-120,1686,8150,25,-71,-1
0.396779,-50,1649,8156,81,-52,-89
0.396919,-54,1683,8162,-32,-77,50
0.397058,-113,1623,8113,107,-45,-64
0.397197,-61,1673,8190,25,-116,-13
0.397336,-92,1664,8153,19,-33,-1
0.397476,-64,1644,8185,81,-96,-32
0.397615,-48,1616,8183,25,-71,-32
0.397754,-47,1686,8174,37,-45,18
0.397894,-55,1617,8172,75,-103,-64
0.398033,-39,1633,8148,6,-52,12
0.398173,-26,1650,8152,75,-71,-51
0.398312,24,1611,8157,19,-96,-1
0.398451,-42,1623,8148,56,-58,-26
0.39859,-12,1630,8110,31,-64,-13
0.39873,-28,1637,8082,69,-96,-45
0.398869,-51,1641,8145,50,-39,18
0.399012,-112,1613,8143,37,-103,-51
0.399147,-58,1581,8050,25,-52,-20
0.399287,-62,1664,8017,100,-64,-13
0.399426,-94,1606,8129,0,-39,-32
0.399566,-142,1554,8090,44,-103,-26
0.399705,-84,1583,8051,100,-71,-26
0.399844,-72,1664,8024,-19,-71,-1
0.399985,-54,1630,8011,63,-39,-26
0.400124,-74,1654,7965,63,-96,-45
0.400262,-106,1615,8000,37,-45,25
0.400402,-84,1656,8001,37,-103,-77
0.400541,-142,1660,8010,44,-45,-1
0.40068,-134,1698,8039,63,-84,6
0.400819,-79,1701,8003,12,-26,-45
0.400959,-120,1669,8010,37,-109,-7
0.401098,-133,1691,8061,107,-90,-32
0.401237,-88,1666,8073,6,-52,-7
0.401377,-104,1693,8058,56,-84,-13
0.401516,-94,1691,8100,25,-52,-45
0.401655,-16,1626,8086,50,-84,-13
0.401795,-22,1603,8113,63,-77,-7
0.401934,-40,1655,8163,37,-77,-20
0.402073,-59,1624,8067,25,-64,-7
0.402213,-92,1593,8164,69,-71,-45
0.402352,-60,1627,8124,12,-71,-1
0.402491,0,1604,8145,56,-103,-45
0.402631,-50,1588,8150,37,-13,31
0.40277,-63,1623,8154,37,-103,-32
0.402909,5,1630,8134,50,-84,-51
0.403048,-35,1608,8129,25,-58,-39
0.403188,16,1614,8169,44,-64,50
0.403327,-38,1610,8093,63,-64,-83
0.403466,-74,1605,8152,19,-109,-13
0.403606,-34,1633,8150,69,-52,-1
0.403745,-16,1633,8147,56,-90,-32
0.403884,-81,1618,8141,12,-71,-26
0.404024,-104,1641,8155,69,-33,6
0.404163,-87,1608,8116,44,-96,-45
0.404302,-94,1670,8095,44,-71,-32
0.404442,-108,1685,8034,12,-71,18
0.404581,-106,1611,8070,63,-52,-32
0.40472,-116,1674,8014,44,-90,-20
0.40486,-133,1587,8048,44,-116,-39
0.404999,-68,1637,8052,44,-39,18
0.405138,-136,1674,8018,19,-84,-20
0.405278,-140,1679,8073,94,-90,-26
0.405417,-121,1664,8054,12,-52,-39
0.405556,-177,1591,8056,56,-77,18
0.405696,-139,1670,8020,44,-122,-58
0.405835,-130,1596,8010,31,-52,12
0.405974,-144,1650,8036,63,-64,-39
0.406114,-145,1653,8106,50,-90,-32
0.406253,-98,1649,8084,6,-45,12
0.406392,-101,1665,8065,81,-84,-39
0.406531,-75,1668,8127,12,-39,-32
0.406671,-67,1642,8124,44,-96,-39
0.40681,-30,1625,8169,69,-58,25
0.406949,-8,1623,8101,0,-71,-39
0.407089,-64,1571,8170,94,-84,-32
0.407228,-60,1637,8167,19,-58,6
0.407367,14,1639,8131,56,-90,-26
0.407507,-27,1627,8137,-7,-64,-13
0.407646,-14,1624,8166,81,-58,-13
0.407785,-44,1626,8136,44,-64,-39
0.407925,-49,1598,8110,31,-77,-26
0.408064,-64,1668,8165,50,-96,-7
0.408203,-80,1609,8202,37,-58,-32
0.408343,-24,1612,8164,50,-90,-13
0.408482,-16,1654,8115,44,-58,-20
0.408621,-3,1625,8127,37,-52,-32
0.408761,19,1612,8090,31,-103,-1
0.4089,-70,1657,8122,75,-64,-70
0.409039,-96,1606,8152,6,-52,25
0.409179,-61,1678,8060,63,-58,-32
0.409318,-80,1667,8059,37,-71,-13
0.409457,-81,1652,8058,31,-103,-39
0.409596,-92,1670,8040,56,-58,-26
0.409736,-108,1642,7983,56,-64,31
0.409875,-136,1619,8022,25,-64,-70
0.410014,-94,1630,7964,63,-84,-7
0.410154,-90,1667,7969,31,-45,-7
0.410293,-126,1621,7984,81,-96,-39
0.410432,-86,1619,7999,-13,-58,-1
0.410572,-113,1715,7974,69,-84,-32
0.410711,-82,1660,8027,50,-90,-26
0.41085,-101,1660,7991,25,-52,6
0.41099,-127,1650,8020,37,-122,-45
0.411129,-98,1624,8078,50,-58,-51
0.411268,-56,1610,8060,37,-58,18
0.411408,-30,1640,8087,37,-71,-20
0.411547,-54,1617,8102,56,-71,-39
0.411686,-62,1648,8081,31,-77,6
0.411826,-35,1655,8133,63,-90,-26
0.411965,-39,1655,8105,25,-64,-13
0.412104,-79,1637,8125,25,-71,-45
0.412244,-79,1645,8184,88,-64,-13
0.412383,-16,1608,8176,6,-77,-39
0.412522,-37,1649,8170,75,-52,-20
0.412661,-86,1581,8173,25,-84,12
0.412801,-99,1607,8107,50,-58,-26
0.41294,-34,1637,8164,37,-84,-45
0.413079,-29,1583,8189,19,-39,-1
0.413219,-25,1569,8184,88,-77,-32
0.413358,-37,1618,8104,31,-116,-45
0.413497,10,1664,8139,63,-39,6
0.413637,-13,1646,8133,12,-84,-20
0.413776,-61,1672,8088,63,-64,-39
0.413915,-93,1630,8077,50,-84,-26
0.414055,-88,1569,8098,19,-58,25
0.414194,-84,1629,8071,50,-90,-58
0.414333,-67,1626,8073,37,-52,-1
0.414473,-64,1625,8011,63,-71,-39
0.414612,-127,1646,7990,12,-109,-39
0.414751,-48,1666,7964,63,-33,-1
0.414891,-118,1637,7993,37,-71,-32
0.41503,-112,1683,8044,63,-103,-32
0.415169,-136,1637,8032,56,-77,-26
0.415309,-135,1631,8014,37,-58,25
0.415448,-118,1615,8066,44,-77,-39
0.415587,-121,1645,8091,19,-52,-7
0.415726,-99,1679,8066,94,-84,-58
0.415866,-99,1629,8089,6,-64,25
0.416005,-37,1670,8134,75,-77,-32
0.416144,-155,1635,8163,25,-103,-13
0.416284,-68,1680,8097,100,-64,-58
0.416423,-46,1662,8110,-32,-71,25
0.416562,-88,1635,8100,75,-84,-45
0.416702,-42,1650,8097,25,-58,-13
0.416841,-74,1650,8129,50,-90,-20
0.41698,-17,1657,8138,81,-58,-13
0.41712,-42,1601,8137,25,-71,-51
0.417259,-29,1637,8088,25,-64,12
0.417398,-26,1664,8125,63,-77,-64
0.417538,-81,1587,8159,25,-58,-7
0.417677,-58,1585,8153,63,-71,-39
0.417816,-75,1588,8132,37,-64,-1
0.417956,-56,1655,8090,69,-109,-26
0.418095,-61,1661,8151,6,-39,-13
0.418234,-21,1630,8156,44,-84,-1
0.418376,-50,1631,8150,25,-84,-32
0.418513,-57,1660,8134,94,-64,-45
0.418654,-65,1657,8057,12,-58,-7
0.418792,-87,1644,8058,69,-58,-7
0.418931,-32,1701,8077,50,-84,-7
0.419072,-84,1698,8092,25,-52,-45
0.419209,-63,1676,8080,88,-109,-20
0.41935,-105,1668,8100,-13,-20,-1
0.419488,-149,1640,8067,63,-96,-39
0.419628,-57,1596,8049,44,-77,-26
0.419767,-108,1638,8065,88,-64,-20
0.419909,-169,1642,8056,-7,-52,-32
0.420045,-129,1694,8073,81,-103,-26
0.420185,-86,1694,8004,-7,-52,-13
0.420324,-60,1643,8007,37,-96,-20
0.420463,-120,1620,8073,75,-58,-26
0.420603,-147,1653,8006,0,-77,-20
0.420744,-124,1674,8043,44,-58,-45
0.420881,-104,1629,8077,44,-58,-7
0.421022,-150,1614,8025,6,-58,-7
0.42116,-109,1660,8061,75,-84,-39
0.421302,-108,1696,8108,44,-90,-45
0.421438,-69,1677,8166,19,6,31
0.421578,-44,1662,8113,63,-116,-64
0.421717,-50,1657,8136,75,-64,-1
0.421856,-47,1614,8130,0,-58,-7
0.421997,-48,1604,8098,81,-71,-32
0.422135,-64,1645,8103,25,-64,-20
0.422275,-22,1636,8128,63,-71,-26
0.422415,-41,1600,8125,25,-71,-39
0.422553,-25,1576,8145,75,-71,-13
0.422692,-10,1682,8123,31,-64,-13
0.422832,-21,1667,8166,50,-90,-32
0.422972,-42,1624,8169,50,-84,-26
0.42311,-53,1691,8128,12,-33,37
0.42325,15,1626,8121,69,-90,-77
0.423389,-43,1645,8154,37,-64,-1
0.423529,-34,1636,8155,56,-96,-26
0.423668,6,1671,8125,12,-45,-13
0.423807,-95,1677,8096,37,-64,-39
0.423946,-54,1614,8138,81,-58,6
0.424085,-49,1633,8107,37,-90,-45
0.424225,-27,1646,8113,63,-71,-7
0.424364,-45,1609,8022,19,-64,-32
0.424503,-42,1618,8077,69,-103,-32
0.424643,-52,1654,8018,37,-58,-26
0.424782,-57,1713,8078,25,-77,-1
0.424921,-101,1633,8052,63,-77,-45
0.425061,-87,1646,8053,25,-39,-7
0.4252,-72,1592,8003,31,-103,-39
0.425339,-61,1581,7984,88,-64,-13
0.425483,-102,1636,8025,31,-71,-26
0.425618,-123,1598,8053,50,-103,-7
0.425757,-87,1670,8051,12,-39,-64
0.425897,-96,1654,8055,69,-109,25
0.426037,-40,1679,8029,50,-64,-32
0.426176,-41,1626,8072,50,-71,-39
0.426315,-91,1623,8036,6,-58,-1
0.426454,-54,1618,8055,37,-84,-7
0.426593,-38,1676,8075,69,-45,-39
0.426736,-42,1671,8080,12,-84,-13
0.426872,-99,1717,8128,50,-90,-1
0.427012,-28,1665,8076,81,-58,-45
0.427151,-42,1656,8126,6,-52,-7
0.42729,-44,1652,8128,50,-96,-32
0.427429,-6,1634,8176,44,-33,-13
0.427571,-23,1687,8187,31,-96,-13
0.427708,-29,1639,8140,81,-84,-45
0.427847,-57,1549,8121,12,-45,-1
0.427988,-15,1655,8187,37,-109,-45
0.428126,-34,1659,8112,94,-84,-26
0.428265,-84,1640,8134,12,-58,-7
0.428405,-25,1658,8153,50,-33,-39
0.428544,-55,1678,8174,25,-77,12
0.428683,-64,1606,8107,56,-77,-58
0.428822,-114,1602,8128,25,-84,-1
0.428963,-66,1603,8133,44,-45,-39
0.429101,-38,1611,8116,31,-116,6
0.42924,-76,1679,8122,63,-58,-39
0.429381,-11,1641,8133,37,-64,-32
0.42952,-41,1611,8144,44,-45,-20
0.429658,-100,1665,8091,31,-109,-7
0.429798,-34,1672,8108,31,-33,-45
0.429937,-12,1664,8091,69,-84,-26
0.430076,-76,1673,8088,56,-96,-1
0.430216,-23,1675,8060,37,-64,-26
0.430355,-39,1620,8026,75,-64,-45
0.430494,-93,1679,8010,12,-77,-7
0.430634,-122,1662,8077,37,-71,25
0.430775,-112,1648,8044,50,-71,-83
0.430912,-128,1647,8023,25,-52,12
0.431052,-147,1657,8069,44,-84,-26
0.431192,-151,1660,8051,69,-58,-32
0.43133,-92,1684,8035,56,-90,-7
0.431469,-53,1647,8035,25,-33,-7
0.431609,-140,1677,8016,37,-64,-20
0.431748,-85,1668,8043,50,-96,-51
0.431887,-127,1661,8002,63,-64,-20
0.432027,-136,1660,8084,6,-77,-7
0.432166,-88,1673,8122,100,-64,-51
0.432305,-36,1663,8132,25,-96,6
0.432445,-50,1611,8155,44,-45,-32
0.432584,-80,1662,8148,75,-109,-32
0.432723,-74,1662,8187,0,-45,31
0.432865,-44,1648,8156,44,-90,-39
0.433002,-96,1654,8192,69,-64,-64
0.433141,-9,1665,8167,25,-71,18
0.433281,-40,1638,8185,12,-71,-58
0.43342,-8,1646,8201,88,-71,-7
0.433561,-11,1609,8164,25,-77,-13
0.433699,-21,1623,8157,37,-26,6
0.43384,-19,1650,8179,37,-109,-64
0.433979,-54,1606,8160,50,-52,-13
0.434117,11,1623,8154,37,-20,18
0.434256,-74,1621,8099,37,-116,-58
0.434395,-14,1641,8092,56,-26,-7
0.434535,-24,1562,8114,44,-84,-39
0.434674,-65,1588,8091,37,-64,25
0.434813,-17,1642,8016,56,-64,-64
0.434953,-54,1684,8102,63,-84,6
0.435092,-68,1657,8084,31,-58,-39
0.435231,-90,1672,8021,63,-109,-32
0.435371,-58,1690,7967,25,-20,6
0.43551,-37,1668,8037,56,-109,-51
0.435649,-149,1669,8049,69,-64,-7
0.435789,-119,1685,8065,6,-64,-32
0.435931,-96,1644,8014,88,-96,-13
0.436067,-94,1676,8078,-13,-26,12
0.436206,-70,1716,8026,100,-128,-83
0.436346,-134,1691,8009,19,-58,18
0.436485,-86,1631,8034,25,-77,-1
0.436625,-116,1686,8021,44,-64,-45
0.436764,-50,1673,8004,69,-103,-39
0.436903,-50,1661,8011,-7,-39,-7
0.437042,-61,1642,8067,56,-84,6
0.437181,-50,1622,8125,37,-77,-51
0.437321,-35,1651,8073,50,-77,-26
0.43746,-36,1691,8168,75,-77,-20
0.437599,-62,1640,8156,-7,-64,-20
0.437739,-53,1578,8141,69,-77,-20
0.437878,-30,1630,8106,19,-64,-13
0.438017,-87,1584,8159,63,-96,-13
0.438157,-29,1602,8119,-13,-26,-1
0.438297,9,1624,8161,132,-122,-83
0.438436,-41,1635,8194,31,-33,18
0.438575,-17,1621,8187,31,-71,-26
0.438716,-12,1648,8129,19,-52,-13
0.438853,-20,1647,8119,81,-90,-58
0.438993,-58,1657,8127,19,-64,18
0.439132,22,1612,8168,44,-64,-51
0.439274,-14,1643,8127,37,-39,-1
0.439411,29,1645,8078,44,-141,-45
0.43955,18,1655,8108,19,-13,-20
0.43969,-5,1688,8058,37,-77,-1
0.439829,-73,1635,8071,63,-84,-39
0.439968,-19,1677,8062,25,-58,-7
0.440107,-61,1636,8104,56,-64,-20
0.440247,-86,1670,8081,69,-77,-39
0.440386,-116,1647,8053,31,-52,-32
0.440525,-96,1681,8057,31,-52,25
0.440665,-78,1657,8055,63,-103,-83
0.440806,-158,1658,8080,37,-90,6
0.440943,-145,1701,8040,50,-77,-39
0.441082,-128,1669,8029,6,-39,-1
0.441222,-110,1631,8046,69,-77,-13
0.441361,-145,1649,8089,50,-84,-70
0.4415,-146,1737,8063,44,-77,25
0.44164,-121,1659,8064,50,-52,-26
0.441779,-52,1687,8041,25,-71,-26
0.441918,-64,1684,8128,44,-96,-39
0.442058,-58,1643,8100,0,-71,-1
0.442197,-96,1634,8095,69,-45,-13
0.442336,-18,1594,8127,37,-77,-45
0.442476,-45,1671,8156,25,-58,25
0.442616,-85,1628,8205,63,-64,-39
0.442754,5,1679,8165,56,-116,-51
0.442894,-47,1654,8137,25,-52,-1
0.443033,-28,1607,8204,50,-58,-7
0.443173,-47,1638,8210,37,-84,6
0.443311,-13,1624,8198,25,-58,-70
0.443451,-35,1594,8177,81,-64,12
0.44359,-51,1622,8205,44,-84,-58
0.443731,-35,1698,8136,12,-77,12
0.443869,-28,1703,8127,50,-58,-39
0.444008,-28,1694,8141,37,-90,-20
0.444148,-50,1680,8121,19,-77,-20
0.444288,-9,1630,8090,63,-39,-26
0.444426,-25,1629,8044,44,-64,-7
0.444565,-63,1679,8058,44,-96,-51
0.444705,-66,1668,8014,50,-33,-1
0.444844,-91,1687,8055,37,-90,-45
0.444984,-62,1719,8025,25,-52,6
0.445123,-123,1645,8055,50,-84,-32
0.445262,-118,1642,8055,44,-77,-13
0.445402,-134,1636,8032,19,-52,-26
0.445542,-143,1710,8016,88,-84,-39
0.44568,-151,1707,8123,12,-39,-20
0.445819,-146,1642,8086,19,-96,-20
0.445961,-105,1714,8065,63,-58,-20
0.446098,-102,1664,8046,25,-64,-26
0.446238,-73,1689,8045,56,-77,-32
0.446376,-84,1686,8062,37,-58,-26
0.446518,-96,1665,8114,6,-71,-1
0.446655,-96,1605,8068,88,-58,-58
0.446795,-57,1663,8078,19,-103,-7
0.446935,-69,1687,8074,37,-39,-7
0.447073,-80,1639,8107,19,-58,-20
0.447213,-92,1649,8123,56,-103,-39
0.447352,-41,1667,8135,69,-26,6
0.447491,-53,1643,8140,-13,-71,-13
0.447631,-85,1642,8157,100,-96,-51
0.44777,-87,1663,8172,31,-64,25
0.447909,12,1593,8135,12,-77,-45
0.448048,2,1658,8192,69,-64,6
0.448188,-61,1670,8188,12,-77,-39
0.448327,-51,1633,8100,94,-77,-20
0.448467,-24,1605,8180,37,-52,-32
0.448606,-65,1595,8181,44,-58,-45
0.448745,1,1601,8157,31,-64,31
0.448884,-73,1622,8141,81,-96,-64
0.449024,-10,1612,8097,-7,-77,-32
0.449163,-58,1592,8141,50,-33,31
0.449302,-102,1634,8171,44,-116,-77
0.449442,-19,1635,8071,63,-39,6
0.449581,-48,1645,8135,63,-96,-32
0.44972,-86,1654,8136,6,-84,-26
0.44986,-118,1674,8097,69,-45,-7
0.449999,-141,1682,8080,25,-58,-26
0.450138,-124,1697,8094,25,-116,-20
0.450278,-98,1649,8066,88,-58,-13
0.450417,-107,1655,8043,12,-58,-13
0.450556,-94,1683,8020,69,-103,-20
0.450695,-126,1645,8066,31,-58,-7
0.450835,-85,1673,8002,31,-77,-51
0.450974,-112,1684,8026,25,-52,6
0.451115,-106,1644,8065,75,-71,-26
0.451253,-111,1626,8061,37,-71,-39
0.451393,-157,1636,8081,63,-64,-32
0.451531,-74,1642,8125,0,-58,-1
0.451671,-109,1660,8152,69,-96,-51
0.45181,-114,1680,8096,31,-64,18
0.451949,-42,1662,8110,56,-64,-45
0.452089,-17,1617,8109,50,-90,-20
0.452228,-32,1676,8198,31,-77,-13
0.452367,-30,1652,8167,69,-26,6
0.452507,-59,1650,8175,63,-154,-39
0.452646,-43,1664,8147,6,-39,-7
0.452786,17,1631,8123,75,-52,-20
0.452924,-44,1650,8128,50,-103,-45
0.453065,-51,1640,8105,19,-52,18
0.453204,-5,1610,8156,37,-84,-51
0.453346,-68,1593,8194,63,-52,-1
0.453483,-77,1642,8190,37,-116,-32
0.453621,-64,1655,8173,19,-20,-20
0.453761,-54,1626,8138,31,-77,-7
0.4539,-69,1653,8140,100,-84,-39
0.454039,-60,1637,8058,6,-45,-45
0.45418,-42,1679,8078,63,-77,18
0.454318,-36,1673,8026,6,-77,-26
0.454457,-58,1667,8099,69,-77,-26
0.454596,-73,1652,8084,19,-90,-39
0.454736,-62,1681,8058,50,-58,-1
0.454875,-14,1654,8073,56,-64,-26
0.455015,-61,1627,8074,37,-45,-20
0.455154,-111,1625,8103,12,-96,-32
0.455295,-64,1629,8114,94,-90,-39
0.455433,-92,1668,8045,-7,-39,12
0.455572,-77,1656,8067,94,-77,-45
0.455713,-108,1700,8041,-13,-64,6
0.45585,-110,1723,8035,69,-58,-26
0.45599,-93,1665,8062,25,-64,-26
0.456129,-88,1647,8071,63,-96,-45
0.45627,-93,1654,8105,50,-45,6
0.456408,-30,1630,8077,25,-71,-51
0.456547,-62,1651,8080,31,-71,-7
0.456686,-54,1591,8128,50,-71,-1
0.456826,-66,1616,8089,25,-64,-51
0.456965,-83,1630,8048,44,-77,6
0.457104,-53,1654,8122,63,-71,-32
0.457244,-45,1633,8090,44,-84,-20
0.457383,-59,1684,8067,12,-96,-39
0.457522,-82,1664,8072,56,-7,-1
0.457665,-38,1660,8139,63,-122,-13
0.457801,-73,1658,8152,25,-58,-26
0.45794,-43,1661,8133,56,-90,-58
0.458079,3,1638,8128,25,-33,37
0.458219,-46,1670,8175,56,-109,-32
0.458358,-24,1654,8152,31,-58,-32
0.458497,-78,1707,8079,81,-103,-26
0.458637,-59,1647,8108,-13,-26,-1
0.458776,-6,1634,8086,94,-128,-58
0.458915,-57,1637,8118,19,-13,12
0.459055,5,1621,8067,56,-96,-7
0.459194,-18,1673,8104,31,-103,-39
0.459333,-66,1622,8190,94,-84,-32
0.459473,-86,1641,8115,-7,-39,-1
0.459612,-48,1647,8080,50,-64,18
0.459751,-113,1636,8052,69,-96,-83
0.459891,-102,1615,8042,31,-39,-20
0.46003,-87,1618,8095,25,-45,25
0.460169,-98,1602,8058,63,-122,-51
0.460309,-21,1641,7915,56,-33,-45
0.460448,-78,1666,8013,12,-96,6
0.460587,-116,1670,8020,44,-52,-32
0.460726,-128,1656,8081,56,-96,-32
0.460866,-39,1655,8076,31,-77,-13
0.461006,-110,1642,8063,63,-64,-7
0.461144,-99,1674,8104,31,-64,-32
0.461284,-103,1710,8092,44,-77,-1
0.461423,-105,1652,8127,50,-71,-39
0.461562,-98,1656,8068,31,-58,-7
0.461702,-122,1618,8118,69,-109,-45
0.461841,-100,1705,8113,19,-64,-20
0.46198,-85,1620,8102,63,-13,18
0.462119,-54,1617,8079,44,-141,-58
0.462259,-90,1632,8115,12,-33,-20
0.462399,-103,1593,8143,37,-77,6
0.462539,-40,1606,8153,50,-58,-32
0.462677,-101,1631,8137,75,-90,-26
0.462817,-31,1615,8076,6,-33,-20
0.462957,-42,1625,8077,69,-90,-20
0.463095,-20,1634,8124,19,-58,-7
0.463234,-69,1646,8160,56,-64,-64
0.463377,-25,1608,8116,6,-71,6
0.463513,-27,1623,8097,63,-52,6
0.463652,-72,1645,8082,81,-96,-77
0.463792,-51,1622,8082,12,-20,37
0.463931,-44,1647,8094,56,-122,-77
0.46407,-74,1633,8154,0,-20,44
0.464209,-83,1658,8155,69,-71,-58
0.464349,-81,1649,8109,25,-84,-26
0.464488,-54,1594,8113,50,-71,-13
0.464627,-42,1675,8058,75,-71,-7
0.464768,-38,1662,8084,6,-39,-32
0.464906,-72,1649,8170,37,-71,-1
0.465046,-76,1635,8081,88,-71,-45
0.465185,-37,1649,8087,19,-96,-20
0.465324,-69,1625,8042,44,-52,-13
0.465463,-87,1612,8082,31,-52,-7
0.465603,-92,1630,8095,75,-90,-20
0.465742,-69,1656,8081,19,-58,-26
0.465881,-12,1659,8036,37,-84,-7
0.466021,-113,1678,8000,69,-84,-7
0.46616,-116,1640,8095,37,-84,-64
0.466301,-80,1621,8048,37,-7,37
0.466438,-104,1646,8056,25,-135,-83
0.466578,-83,1678,8101,56,-26,37
0.466717,-114,1700,8140,37,-116,-58
0.466857,-40,1729,8113,44,-39,-20
0.466997,-71,1763,8100,44,-84,-20
0.467135,-92,1651,8103,31,-39,18
0.467276,-88,1618,8099,63,-84,-64
0.467414,-83,1624,8094,-7,-58,-1
0.467553,-93,1652,8129,69,-58,-7
0.467692,-35,1633,8143,44,-116,-70
0.467832,-42,1610,8072,31,-39,12
0.467971,-87,1608,8045,37,-90,-13
0.468111,-129,1626,8078,63,-58,-13
0.46825,-34,1602,8102,50,-90,-45
0.468389,-42,1608,8092,37,-77,-20
0.468528,-86,1629,8104,0,-45,-39
0.468668,-89,1704,8163,81,-71,-1
0.468807,-84,1590,8166,31,-90,-32
0.468946,-39,1610,8107,63,-71,-32
0.469086,-58,1577,8058,12,-84,-1
0.469225,-81,1654,8067,75,-58,-26
0.469364,-88,1635,8066,63,-71,-32
0.469504,-102,1632,8092,-13,-64,-26
0.469643,-57,1691,8102,69,-13,25
0.469782,-14,1667,8052,50,-109,-77
0.469922,-80,1657,8082,44,-77,-26
0.470061,-94,1691,8082,25,-20,18
0.4702,-78,1649,8108,56,-122,-39
0.47034,-121,1621,8076,31,-20,-39
0.470479,-53,1672,8069,56,-122,-7
0.470618,-63,1688,8100,44,-33,-1
0.470757,-124,1657,8046,63,-122,-70
0.470898,-54,1638,8068,0,-26,6
0.471036,-86,1729,8055,63,-84,-26
0.471175,-122,1710,8058,19,-71,-13
0.471315,-95,1666,8060,81,-84,-45
0.471455,-65,1619,8039,25,-20,12
0.471594,-82,1622,8128,25,-122,-45
0.471733,-28,1715,8120,75,-71,-1
0.471872,-38,1634,8136,6,-45,-20
0.472011,-76,1646,8117,63,-90,-13
0.47215,-69,1648,8077,56,-52,-39
0.47229,-67,1631,8103,12,-71,25
0.472429,-88,1687,8099,63,-103,-70
0.472569,-38,1678,8149,44,-52,-7
0.472709,-47,1651,8154,25,-45,-7
0.472847,-66,1667,8169,69,-84,-45
0.472987,-32,1652,8074,50,-90,12
0.473126,-44,1641,8088,12,-45,-39
0.473266,-40,1596,8124,88,-84,-39
0.473404,-36,1678,8203,0,-58,37
0.473545,-66,1618,8161,56,-90,-95
0.473683,-46,1633,8097,19,-52,25
0.473822,-19,1702,8154,94,-84,-45
0.473962,-63,1632,8149,-7,-71,6
0.474101,-70,1624,8106,69,-33,-39
0.474241,-38,1582,8122,44,-90,-20
0.47438,-79,1627,8109,50,-77,-58
0.474521,-91,1666,8064,0,-58,6
0.474659,-52,1594,8122,63,-45,-13
0.474798,-87,1636,8120,63,-90,-45
0.474937,-68,1590,8116,25,-71,-7
0.475076,-62,1685,8136,56,-77,-39
0.475216,-84,1680,8054,25,-39,-20
0.475355,-97,1641,8046,75,-116,-32
0.475494,-74,1628,8105,0,-13,37
0.475634,-87,1697,8107,88,-103,-83
0.475773,-67,1653,8044,25,-45,-7
0.475912,-25,1661,8116,37,-90,-1
0.476052,-96,1633,8117,63,-58,-26
0.476191,-74,1650,8082,63,-71,-7
0.47633,-96,1584,8087,37,-96,-64
0.47647,-126,1612,8094,37,-71,-1
0.476609,-97,1689,8037,63,-77,-7
0.476749,-84,1654,8034,31,-52,-26
0.476888,-80,1604,8091,56,-77,-32
0.477027,-64,1635,8141,19,-64,-32
0.477166,-61,1667,8120,63,-96,-20
0.477306,-28,1642,8062,37,-45,-1
0.477446,-72,1642,8077,12,-71,-45
0.477584,-85,1656,8143,100,-90,-45
0.477724,-140,1624,8183,19,-33,6
0.477863,-95,1672,8110,44,-84,-26
0.478002,-71,1681,8072,25,-71,-20
0.478141,-48,1604,8109,44,-71,-32
0.478281,-22,1626,8113,75,-64,-13
0.47842,-61,1636,8088,-19,-58,-32
0.478559,-102,1690,8120,88,-122,-7
0.478699,-72,1674,8146,19,-58,-26
0.478838,-57,1671,8138,50,-58,-7
0.478977,-59,1663,8071,63,-84,-26
0.479117,-99,1674,8058,6,-52,-13
0.479256,-78,1656,8073,94,-96,-13
0.479395,-40,1607,8058,12,-84,-32
0.479535,-68,1625,8100,75,-45,-7
0.479674,-49,1642,8078,37,-71,-32
0.479813,-75,1614,8087,37,-84,-45
0.479952,-55,1625,8116,56,-84,-1
0.480092,-57,1616,8098,25,-52,-1
0.480231,-36,1628,8077,50,-84,-58
0.480371,-74,1668,8089,69,-58,6
0.48051,-74,1632,8040,37,-90,-13
0.480649,-54,1641,8030,56,-58,-32
0.48079,-66,1642,8019,25,-77,-32
0.480928,-131,1656,8090,44,-13,6
0.481067,-61,1688,8087,56,-128,-45
0.481206,-49,1640,8077,31,-64,-13
0.481346,-49,1676,8067,44,-39,-7
0.481485,-100,1647,8069,50,-90,-39
0.481624,-48,1677,8120,37,-71,-13
0.481763,-95,1603,8078,31,-45,18
0.481903,-97,1632,8142,56,-84,-83
0.482042,-109,1590,8150,37,-71,31
0.482181,-52,1729,8114,31,-52,-39
0.482321,-25,1700,8083,37,-84,-1
0.48246,-70,1620,8128,50,-77,-51
0.4826,-76,1588,8150,37,-71,12
0.48274,-64,1655,8135,44,-45,-32
0.482878,-32,1610,8116,37,-84,12
0.483019,-19,1592,8165,56,-64,-39
0.483157,-44,1650,8102,31,-77,-45
0.483297,-50,1633,8081,56,-71,-1
0.483438,-29,1621,8108,37,-52,-1
0.483575,-25,1592,8132,44,-103,-58
0.483714,-10,1610,8082,63,-64,-26
0.483855,-31,1667,8119,19,-90,-13
0.483993,-35,1614,8127,63,-33,-13
0.484132,-87,1611,8132,81,-122,-20
0.484275,-38,1643,8085,-13,-39,-32
0.484411,-55,1593,8100,81,-84,-7
0.48455,-36,1640,8064,37,-71,-39
0.484689,-19,1644,8072,31,-84,-1
0.484829,-61,1623,8039,94,-58,-32
0.484968,-67,1631,8009,6,-90,-1
0.485107,-89,1631,8064,56,-71,-39
0.485247,-62,1649,8069,44,-71,-13
0.485386,-174,1618,8051,50,-58,-51
0.485525,-156,1634,8032,25,-71,12
0.485665,-113,1607,8061,69,-90,-51
0.485804,-79,1628,8067,50,-64,-13
0.485943,-78,1645,8029,19,-64,25
0.486087,-96,1695,8036,19,-58,-64
0.486222,-150,1674,8062,81,-96,-26
0.486361,-114,1638,8137,-13,-52,-13
0.4865,-133,1653,8122,94,-84,-13
0.48664,-89,1612,8112,19,-90,-20
0.486779,-125,1707,8099,31,-45,-26
0.486918,-48,1670,8112,69,-84,-26
0.487058,-34,1598,8080,6,-33,-7
0.487197,-47,1609,8093,63,-103,-39
0.487336,-35,1644,8090,31,-33,18
0.487476,-60,1614,8120,50,-77,-45
0.487615,-85,1583,8163,37,-90,6
0.487754,-37,1630,8128,56,-71,-39
0.487894,-44,1649,8113,50,-64,-51
0.488033,9,1600,8147,56,-84,12
0.488172,-44,1668,8099,0,-52,-20
0.488312,-52,1634,8141,69,-71,-39
0.488451,-50,1628,8189,44,-84,-7
0.48859,-33,1577,8115,81,-39,-32
0.48873,-93,1629,8167,6,-77,-32
0.488869,-49,1664,8186,50,-84,-26
0.489008,-2,1624,8130,25,-58,25
0.489148,-44,1660,8138,75,-116,-70
0.489287,-114,1612,8111,6,-39,18
0.489426,-37,1686,8103,69,-77,-51
0.489566,-59,1674,8152,56,-77,-20
0.489705,-112,1631,8161,37,-58,-7
0.489844,-77,1660,8080,19,-77,-7
0.489983,-45,1657,8059,81,-77,-45
0.490123,-96,1654,8083,31,-77,18
0.490262,-86,1635,8120,31,-64,-51
0.490401,-119,1698,8099,50,-64,12
0.490541,-115,1625,8066,50,-96,-64
0.490681,-101,1630,8114,50,-39,6
0.49082,-95,1629,8088,25,-77,-1
0.490961,-115,1657,8041,94,-77,-51
0.491098,-52,1653,8087,19,-39,-1
0.491237,-82,1668,8072,63,-116,-13
0.491376,-69,1703,8077,31,-58,-39
0.491516,-34,1630,8070,56,-64,-1
0.491655,-102,1616,8080,56,-77,-51
0.491794,-95,1585,8085,12,-52,18
0.491934,-97,1590,8072,81,-84,-39
0.492073,-29,1646,8142,50,-77,-26
0.492212,-81,1621,8124,31,-64,-1
0.492352,-22,1674,8096,63,-84,-32
0.492491,-48,1677,8069,44,-45,-20
0.49263,-56,1624,8134,12,-96,-7
0.49277,-31,1618,8088,88,-45,-51
0.492909,-41,1627,8133,6,-90,31
0.49305,-65,1621,8107,81,-77,-39
0.493188,-56,1595,8143,0,-52,-26
0.493328,-39,1640,8143,119,-103,-70
0.493466,-20,1612,8168,-19,-39,44
0.493606,-27,1585,8140,63,-84,-39
0.493745,-21,1634,8106,6,-84,-7
0.493884,-92,1626,8061,94,-90,-58
0.494025,-73,1661,8108,-7,-58,-7
0.494163,-39,1626,8108,94,-45,-20
0.494302,-78,1638,8103,12,-64,-39
0.494442,-103,1641,8163,63,-96,6
0.494581,-95,1633,8085,37,-71,-39
0.49472,-32,1670,8057,44,-64,-39
0.49486,-60,1650,8082,31,-45,-1
0.494999,-54,1637,8061,50,-84,-26
0.495138,-86,1642,8098,50,-77,-13
0.495278,-74,1623,8104,44,-71,-70
