Average_IMU_SPS_Hz,6933.169
IMU_Time_sec,Accel_X_raw,Accel_Y_raw,Accel_Z_raw,Gyro_X_raw,Gyro_Y_raw,Gyro_Z_raw
0.0,-7,-125,8280,6,-20,24
0.000139,29,-127,8292,82,-116,-45
0.000278,10,-150,8288,0,-26,-7
0.000423,35,-142,8284,119,-116,-83
0.000557,-14,-152,8290,-25,-14,56
0.000697,-5,-119,8303,69,-90,-70
0.000836,2,-168,8311,19,-65,43
0.000975,-7,-190,8326,44,-90,-77
0.001114,47,-137,8296,50,-33,12
0.001254,1,-128,8299,50,-97,-39
0.001393,7,-170,8332,50,-65,-1
0.001532,-10,-145,8344,44,-84,-51
0.001671,58,-139,8298,63,-58,-26
0.001811,44,-157,8284,38,-52,-20
0.00195,12,-156,8272,6,-77,-1
0.002089,-35,-154,8323,31,-71,-39
0.002229,-31,-177,8308,44,-71,-20
0.002368,-7,-108,8301,75,-77,-7
0.002507,-86,-140,8306,6,-46,-32
0.002647,26,-152,8333,69,-84,-32
0.002786,43,-151,8353,44,-58,5
0.002925,-13,-59,8313,19,-103,-58
0.003064,-2,-106,8296,63,-39,12
0.003204,-27,-96,8327,31,-84,-32
0.003343,-58,-110,8327,75,-71,-32
0.003482,9,-134,8311,38,-109,-1
0.003622,17,-180,8300,12,-46,-26
0.003761,30,-127,8334,69,-71,-20
0.0039,24,-138,8294,12,-58,-51
0.00404,16,-159,8323,75,-97,5
0.004179,30,-125,8307,19,-58,-26
0.004318,7,-164,8286,31,-65,-20
0.004458,-15,-137,8337,69,-52,-20
0.004597,-19,-136,8320,25,-109,-7
0.004736,9,-118,8331,56,-33,-20
0.004876,37,-117,8299,50,-97,-32
0.005015,15,-145,8312,63,-52,-26
0.005154,42,-148,8318,-6,-84,18
0.005293,-1,-153,8308,56,-52,-70
0.005433,-7,-152,8353,63,-90,24
0.005572,-22,-163,8309,44,-58,-26
0.005711,74,-142,8321,25,-97,-20
0.005851,22,-129,8330,38,-33,-20
0.00599,32,-156,8314,69,-77,-26
0.006129,14,-133,8287,-6,-58,-32
0.006269,32,-118,8341,82,-122,-7
0.006408,-39,-140,8362,25,-46,-45
0.006547,-30,-139,8341,50,-39,-1
0.006687,9,-84,8328,50,-116,-58
0.006826,-54,-103,8280,19,-52,37
0.006965,-31,-142,8254,69,-71,-32
0.007104,-27,-156,8330,12,-46,-32
0.007244,24,-134,8341,69,-77,-7
0.007383,31,-139,8362,31,-90,-39
0.007522,36,-135,8298,38,-58,5
0.007662,60,-138,8285,56,-71,-45
0.007801,22,-135,8282,38,-52,-1
0.00794,26,-138,8360,19,-103,-51
0.00808,-17,-164,8291,38,-33,18
0.008219,-17,-125,8273,63,-58,-39
0.008358,8,-117,8318,69,-103,-20
0.008498,36,-149,8303,31,-65,-7
0.008637,-58,-114,8321,38,-46,-20
0.008776,-42,-165,8303,38,-84,-26
0.008915,-12,-165,8294,63,-77,-13
0.009055,3,-93,8361,12,-84,-13
0.009194,39,-137,8299,88,-58,-32
0.009333,-19,-91,8287,38,-90,-20
0.009473,-2,-127,8292,19,-20,-20
0.009612,-4,-146,8323,88,-109,-39
0.009751,1,-150,8361,12,-84,5
0.009891,-18,-165,8355,12,-26,-39
0.010032,9,-161,8297,94,-97,-32
0.01017,27,-134,8308,25,-84,-7
0.010308,46,-125,8350,75,-77,-20
0.010448,-4,-106,8261,12,-97,-51
0.010588,26,-66,8297,31,-33,18
0.010726,32,-125,8326,69,-97,-58
0.010866,22,-151,8305,0,-39,18
0.011005,-26,-112,8300,94,-116,-26
0.011144,1,-129,8316,19,-39,-26
0.011284,-11,-88,8306,31,-77,-13
0.011423,23,-125,8239,44,-97,-20
0.011562,5,-129,8298,12,-65,-39
0.011701,-6,-99,8349,82,-65,-26
0.011841,28,-140,8314,-6,-77,12
0.01198,48,-165,8301,88,-39,-45
0.012119,52,-132,8298,19,-77,-20
0.01226,0,-143,8329,25,-71,-7
0.012398,-18,-189,8336,82,-65,-39
0.012539,15,-88,8272,31,-77,-20
0.012677,32,-108,8268,63,-33,-7
0.012817,6,-147,8312,25,-103,-45
0.012956,-19,-138,8272,38,-39,-7
0.013095,6,-71,8264,50,-90,-20
0.013234,14,-125,8324,63,-46,-39
0.013373,-32,-167,8314,6,-90,-1
0.013513,18,-113,8314,44,-71,-26
0.013653,-6,-161,8330,63,-65,-7
0.013791,-38,-151,8317,12,-58,-20
0.013931,-57,-91,8294,88,-71,-39
0.01407,-80,-122,8297,12,-84,-7
0.014209,-28,-123,8293,38,-46,-26
0.01435,5,-127,8290,69,-71,-1
0.014488,-21,-141,8294,6,-90,-64
0.014627,16,-145,8340,44,-33,5
0.014766,75,-156,8267,25,-109,-20
0.014906,36,-168,8269,63,-33,-20
0.015047,1,-107,8261,69,-52,-26
0.015184,-44,-155,8232,6,-90,5
0.015324,-15,-154,8242,31,-77,-45
0.015463,41,-175,8296,69,-58,5
0.015603,21,-191,8288,38,-52,-26
0.015742,6,-125,8256,-13,-46,-20
0.015881,-5,-127,8318,119,-116,-26
0.016021,-56,-122,8296,-13,-26,-7
0.01616,-24,-123,8295,44,-109,-20
0.016299,5,-96,8271,63,-103,-58
0.016438,12,-149,8254,25,-39,-1
0.016578,-29,-106,8316,56,-90,-20
0.016717,-6,-148,8316,6,-52,5
0.016856,94,-137,8262,88,-71,-64
0.016996,16,-101,8348,31,-58,31
0.017135,5,-127,8247,88,-65,-64
0.017274,-2,-102,8260,-19,-77,18
0.017413,53,-117,8326,88,-77,-58
0.017553,56,-125,8299,12,-58,18
0.017692,-7,-171,8305,82,-122,-58
0.017831,-15,-145,8306,19,-39,12
0.017971,-40,-144,8305,63,-77,-26
0.01811,-14,-105,8309,19,-84,-39
0.018249,-4,-99,8279,38,-58,-1
0.018388,14,-151,8285,63,-77,-39
0.018528,23,-168,8323,0,-58,24
0.018667,-15,-148,8328,44,-84,-64
0.018807,31,-110,8309,63,-52,5
0.018946,-16,-133,8238,63,-103,-64
0.019085,-1,-94,8246,19,-33,-1
0.019224,14,-152,8288,44,-77,5
0.019363,-5,-150,8305,31,-77,-26
0.019503,-31,-82,8334,56,-77,-58
0.019642,13,-153,8285,44,-77,18
0.019781,-3,-188,8296,19,-33,-26
0.019921,9,-141,8323,69,-90,-26
0.02006,39,-96,8345,44,-52,-7
0.0202,3,-99,8302,38,-77,-20
0.020339,-14,-107,8295,69,-90,-51
0.020478,-15,-107,8336,50,-65,12
0.020617,-58,-84,8342,19,-97,-26
0.020759,-17,-110,8273,50,-26,-13
0.020896,-38,-120,8285,56,-103,-26
0.021035,-20,-133,8301,31,-71,-7
0.021174,14,-178,8332,44,-71,-26
0.021314,52,-134,8308,38,-46,-13
0.021454,12,-127,8274,100,-84,-51
0.021592,-29,-99,8280,0,-103,-13
0.021732,-14,-132,8294,38,-20,12
0.021872,1,-136,8299,56,-77,-32
0.022011,19,-158,8333,38,-97,-45
0.02215,-8,-109,8259,25,-20,-1
0.022289,-28,-98,8294,44,-116,-45
0.022428,40,-104,8320,44,-52,-13
0.022569,-5,-97,8291,38,-52,-1
0.022707,-25,-88,8317,75,-84,-70
0.022846,-13,-98,8313,-25,-71,31
0.022986,42,-156,8280,75,-58,-39
0.023126,41,-150,8316,6,-52,-7
0.023264,5,-100,8286,56,-84,-20
0.023404,39,-128,8291,56,-71,-32
0.023543,14,-101,8335,31,-77,-26
0.023682,17,-142,8318,50,-84,-13
0.023822,17,-183,8292,19,-58,-7
0.023961,-20,-165,8303,88,-90,-26
0.0241,-4,-113,8336,44,-65,-13
0.02424,-26,-141,8318,12,-71,-32
0.024379,9,-82,8274,50,-52,-1
0.024518,-6,-146,8254,38,-71,-45
0.024657,-1,-69,8276,44,-65,5
0.024798,44,-106,8279,44,-109,-45
0.024936,44,-101,8315,69,-46,-13
0.025075,38,-134,8292,0,-58,-20
0.025214,13,-92,8276,69,-65,-7
0.025355,2,-118,8293,38,-65,-26
0.025495,-27,-135,8316,44,-77,-45
0.025633,17,-186,8294,-6,-52,31
0.025772,26,-189,8296,88,-84,-96
0.025912,12,-143,8296,25,-71,5
0.02605,11,-100,8254,6,-58,-1
0.02619,-35,-118,8310,63,-97,-58
0.026329,20,-105,8265,50,-26,24
0.026468,-68,-173,8359,12,-84,-26
0.026608,31,-111,8319,50,-97,-45
0.026747,36,-165,8331,44,-71,-1
0.026886,-12,-135,8281,19,-33,-32
0.027026,-66,-122,8323,31,-58,24
0.027165,29,-120,8323,69,-90,-89
0.027307,11,-99,8304,31,-77,12
0.027444,-4,-89,8272,44,-71,-45
0.027583,-10,-173,8261,0,-33,12
0.027722,-39,-179,8315,82,-122,-64
0.027862,-10,-160,8307,6,-58,5
0.028001,2,-98,8289,56,-84,-13
0.02814,-27,-134,8313,63,-46,-26
0.028279,-48,-124,8331,38,-77,-39
0.028419,-6,-127,8282,19,-77,12
0.028558,44,-106,8308,56,-90,-64
0.028697,-9,-94,8293,63,-58,18
0.028836,30,-105,8325,12,-39,-20
0.028976,23,-93,8259,56,-109,-58
0.029115,5,-118,8288,44,-52,12
0.029255,8,-130,8351,44,-84,-45
0.029394,1,-118,8285,12,-77,-13
0.029533,-8,-179,8296,75,-71,-7
0.029673,22,-146,8287,6,-71,-64
0.029813,32,-131,8285,44,-65,24
0.029951,39,-169,8305,82,-97,-51
0.03009,42,-202,8339,19,-46,-13
0.03023,41,-99,8350,56,-71,-1
0.030369,2,-111,8324,25,-71,-39
0.030508,47,-138,8243,75,-103,-32
0.030647,43,-103,8265,25,-14,12
0.030787,7,-154,8329,50,-90,-45
0.030926,-35,-184,8293,25,-90,-7
0.031065,-17,-146,8261,38,-39,-45
0.031211,38,-168,8300,38,-103,12
0.031344,51,-135,8300,75,-71,-58
0.031483,15,-140,8282,0,-90,-7
0.031623,-9,-166,8298,63,-14,5
0.031762,3,-134,8273,56,-109,-70
0.031901,23,-131,8296,44,-52,18
0.032041,6,-165,8338,6,-58,-32
0.032181,-3,-173,8336,100,-116,-51
0.032319,43,-152,8281,25,-14,12
0.032459,10,-116,8281,56,-90,-20
0.032598,26,-117,8286,44,-71,-39
0.032737,32,-135,8274,38,-46,-20
0.032876,15,-130,8321,44,-71,-7
0.033017,-3,-129,8326,31,-71,-39
0.033161,32,-165,8282,44,-90,-45
0.033296,-13,-192,8305,56,-33,18
0.033434,6,-160,8314,19,-84,-32
0.033573,-10,-157,8336,100,-84,-32
0.033712,-45,-129,8300,-19,-71,-13
0.033852,-76,-130,8317,50,-39,-39
0.033991,-13,-139,8322,31,-84,-1
0.03413,29,-142,8317,69,-84,-13
0.03427,4,-154,8230,6,-71,-26
0.03441,27,-108,8277,100,-90,-51
0.034548,5,-128,8320,6,-58,-1
0.034688,16,-185,8339,75,-77,-26
0.034828,-8,-127,8288,12,-58,-13
0.034966,35,-141,8280,38,-65,-26
0.035105,10,-171,8321,63,-90,-13
0.035245,30,-121,8304,38,-65,-32
0.035385,5,-119,8342,50,-52,-1
0.035523,-23,-117,8326,38,-65,-32
0.035663,4,-131,8285,25,-46,-13
0.035803,22,-123,8276,56,-97,-20
0.035947,-4,-104,8288,69,-52,-45
0.036081,8,-160,8295,19,-84,-7
0.03622,-10,-125,8269,50,-58,-13
0.036359,-26,-100,8319,19,-52,-26
0.036499,21,-161,8281,63,-97,-20
0.036638,8,-163,8277,63,-90,-58
0.036777,21,-122,8340,12,-58,-7
0.036916,22,-148,8313,56,-52,-20
0.037056,0,-186,8313,82,-90,-51
0.037195,21,-146,8293,-6,-46,37
0.037334,5,-136,8336,25,-109,-58
0.037474,-16,-155,8339,100,-39,-26
0.037613,31,-130,8288,-13,-84,-32
0.037753,16,-152,8295,38,-46,5
0.037892,8,-144,8313,63,-84,-45
0.038031,-1,-164,8229,63,-71,-32
0.03817,27,-96,8269,31,-71,12
0.03831,-23,-166,8295,12,-39,-13
0.038449,-24,-126,8279,56,-97,-70
0.038588,11,-133,8276,31,-52,31
0.038727,2,-115,8277,50,-77,-51
0.038867,1,-156,8310,75,-77,-13
0.039006,15,-165,8256,25,-46,-1
0.039145,16,-115,8308,38,-71,-45
0.039285,-27,-171,8329,75,-84,-32
0.039424,27,-108,8269,6,-58,-32
0.039563,-20,-145,8351,75,-65,-1
0.039703,-18,-150,8316,44,-77,-32
0.039842,-39,-126,8300,25,-71,-7
0.039984,-8,-97,8328,69,-58,-39
0.04012,-4,-110,8286,31,-71,-13
0.04026,-25,-105,8282,50,-65,-20
0.0404,7,-156,8265,38,-84,-13
0.040538,-11,-142,8295,113,-90,-45
0.040679,13,-114,8259,0,-46,-13
0.040817,27,-82,8262,38,-71,-7
0.040956,6,-127,8265,19,-58,-32
0.041095,23,-132,8288,69,-103,-13
0.041235,6,-98,8261,50,-65,-51
0.041374,-24,-96,8333,-13,-58,37
0.041514,8,-129,8296,100,-58,-70
0.041653,33,-162,8249,31,-97,-7
0.041793,33,-132,8293,31,-46,-39
0.041933,-10,-91,8320,69,-97,-51
0.042072,-35,-146,8328,0,-26,69
0.042212,-25,-152,8307,107,-109,-64
0.042352,17,-106,8316,0,-71,-20
0.042489,4,-103,8301,75,-77,-45
0.042628,41,-73,8302,-6,-58,18
0.042767,29,-97,8302,50,-58,-26
0.042907,18,-120,8310,63,-84,-58
0.043047,-40,-108,8289,31,-46,18
0.043185,-16,-143,8283,31,-77,-26
0.043326,1,-140,8301,82,-84,-51
0.043464,-15,-166,8309,12,-39,5
0.043603,12,-84,8320,56,-90,-39
0.043743,32,-99,8253,50,-52,-7
0.043882,24,-136,8282,12,-65,-26
0.044021,-9,-165,8326,63,-90,-39
0.044161,33,-140,8317,31,-46,37
0.0443,0,-146,8270,56,-90,-70
0.044439,5,-123,8314,31,-71,-7
0.044578,32,-98,8302,25,-65,-39
0.044718,36,-132,8312,82,-77,-20
0.044857,66,-142,8358,-19,-52,18
0.044996,51,-143,8282,69,-128,-51
0.045136,-27,-113,8300,44,-39,-7
0.045275,-26,-103,8333,12,-65,-20
0.045414,15,-118,8307,88,-109,-64
0.045555,7,-96,8327,0,-71,-1
0.045693,-24,-106,8260,38,-26,-7
0.045832,27,-145,8302,69,-116,-51
0.045971,52,-119,8284,6,-33,18
0.046113,-42,-146,8323,25,-90,-70
0.04625,-37,-119,8270,50,-71,18
0.046393,15,-102,8325,44,-71,-45
0.046529,7,-111,8276,38,-26,24
0.046669,-35,-112,8338,38,-97,-58
0.046807,-28,-155,8323,63,-58,-1
0.046947,-13,-121,8248,25,-65,-51
0.047086,-10,-91,8283,44,-39,37
0.047225,2,-168,8299,94,-109,-64
0.047365,11,-88,8273,-19,-52,-13
0.047504,58,-75,8265,82,-65,-20
0.047643,43,-114,8332,31,-58,5
0.047783,12,-147,8300,50,-109,-51
0.047922,18,-141,8286,25,-46,12
0.048061,1,-144,8284,31,-77,-20
0.0482,-16,-176,8322,63,-58,-32
0.04834,21,-155,8291,75,-90,-39
0.048479,9,-186,8255,12,-58,-13
0.048618,6,-121,8314,69,-71,-13
0.048758,-22,-144,8286,-6,-33,-13
0.048897,22,-136,8283,69,-122,-32
0.049036,27,-141,8259,56,-39,-13
0.049176,14,-172,8281,44,-90,-20
0.049315,-25,-173,8294,63,-77,-20
0.049454,21,-140,8283,19,-52,-1
0.049594,18,-124,8340,63,-90,-39
0.049734,-44,-149,8268,44,-77,-20
0.049873,8,-172,8296,25,-65,-26
0.050011,-4,-89,8312,100,-122,-39
0.050151,40,-149,8326,-19,-26,-1
0.050291,0,-162,8334,88,-84,-51
0.050429,14,-120,8275,12,-65,18
0.050569,-42,-108,8275,38,-58,-26
0.050708,-3,-110,8306,82,-84,-7
0.050847,-21,-140,8296,25,-52,-32
0.050986,-9,-114,8274,82,-109,-39
0.051126,-11,-141,8354,12,-39,5
0.051265,26,-114,8334,63,-122,-58
0.051406,-6,-139,8341,6,-33,31
0.051544,-14,-152,8276,82,-77,-64
0.051683,-17,-111,8303,19,-58,5
0.051824,-8,-122,8313,38,-58,-32
0.051963,-13,-175,8330,44,-71,-7
0.052102,34,-156,8304,69,-103,-45
0.052241,-2,-108,8329,25,-39,-1
0.05238,28,-98,8332,38,-97,-39
0.052519,6,-170,8252,63,-77,-7
0.052658,-10,-163,8361,31,-58,-32
0.052798,-32,-130,8354,12,-77,-26
0.052937,29,-149,8296,100,-52,-13
0.053078,21,-149,8313,-19,-77,-7
0.053215,-24,-151,8307,50,-52,-32
0.053356,16,-133,8266,63,-65,-26
0.053494,-20,-152,8327,12,-58,5
0.053634,-9,-132,8243,50,-71,-32
0.053772,20,-126,8265,56,-71,-32
0.053912,-8,-177,8325,50,-77,-1
0.054051,16,-69,8334,0,-39,-26
0.054191,-22,-100,8306,63,-97,-26
0.05433,-31,-154,8282,75,-58,-13
0.054469,-1,-132,8302,25,-84,-58
0.054609,18,-154,8306,31,-26,37
0.054748,13,-116,8317,75,-116,-45
0.054887,33,-159,8320,31,-33,-45
0.055027,13,-180,8340,44,-97,5
0.055166,41,-101,8344,50,-84,-26
0.055307,2,-90,8235,6,-39,-32
0.055445,10,-198,8305,69,-77,-7
0.055584,43,-154,8339,82,-77,-39
0.055723,-33,-139,8303,-13,-97,-7
0.055862,-8,-121,8331,63,-33,-1
0.056002,22,-111,8278,63,-109,-58
0.056141,21,-106,8297,19,-46,18
0.05628,9,-145,8315,56,-77,-45
0.056419,37,-128,8326,19,-58,-13
0.056559,21,-158,8256,56,-84,-64
0.056698,-2,-114,8284,44,-77,37
0.056838,34,-158,8296,50,-65,-26
0.056977,14,-166,8290,12,-71,-58
0.057116,2,-210,8320,63,-33,-13
0.057256,-28,-175,8313,50,-90,-7
0.057396,10,-127,8340,50,-77,-39
0.057534,74,-136,8376,12,-52,-1
0.057673,30,-101,8321,38,-71,-32
0.057814,4,-113,8288,31,-33,-13
0.057952,-10,-173,8306,38,-97,-20
0.058091,34,-150,8281,44,-65,-7
0.05823,-11,-135,8364,38,-20,-39
0.05837,46,-104,8348,31,-122,-20
0.058509,16,-125,8304,50,-71,-7
0.058648,-5,-67,8288,69,-65,-26
0.058788,-34,-81,8331,12,-84,-39
0.058927,-14,-141,8298,56,-77,-7
0.059066,16,-103,8292,31,-65,-32
0.059206,-25,-129,8295,31,-97,-20
0.059345,-17,-134,8314,56,-26,-7
0.059484,-34,-158,8278,31,-77,-32
0.059624,18,-155,8353,63,-103,-39
0.059764,-1,-72,8289,44,-46,-1
0.059903,12,-107,8242,12,-90,-1
0.060041,-39,-172,8292,56,-71,-13
0.060181,-1,-121,8302,69,-58,-58
0.06032,3,-132,8344,6,-58,24
0.060459,2,-195,8315,31,-58,-39
0.060599,20,-178,8320,75,-116,-32
0.060738,-35,-139,8312,0,-71,-1
0.060877,-4,-129,8314,63,-33,-32
0.061017,10,-163,8286,44,-116,-32
0.061156,26,-88,8271,25,-33,12
0.061295,29,-109,8315,56,-90,-45
0.061434,-18,-119,8295,69,-84,-51
0.061574,21,-100,8268,0,-58,-1
0.061715,3,-117,8283,63,-52,5
0.061853,6,-105,8340,44,-90,-64
0.061993,6,-154,8344,12,-65,12
0.062132,-9,-153,8264,75,-90,-45
0.06227,18,-86,8306,50,-65,-7
0.062411,2,-150,8289,19,-84,-45
0.062549,-15,-164,8286,31,-52,5
0.062688,27,-139,8246,56,-65,-45
0.062828,2,-160,8299,25,-58,12
0.062967,-1,-70,8302,56,-52,-26
0.063108,4,-116,8346,25,-97,-39
0.06325,41,-125,8252,82,-90,-13
0.063385,20,-174,8274,38,-14,-39
0.063527,-15,-99,8324,19,-90,18
0.063664,-12,-146,8317,63,-71,-64
0.063803,-29,-140,8254,6,-46,24
0.063942,12,-105,8293,56,-58,-58
0.064082,27,-148,8301,56,-77,-58
0.064221,-18,-165,8292,0,-65,50
0.06436,-20,-128,8306,88,-71,-70
0.064499,18,-139,8375,12,-65,12
0.064639,58,-83,8303,38,-71,-32
0.064778,-39,-88,8280,75,-77,-20
0.064917,6,-159,8280,6,-46,-20
0.065057,14,-127,8272,100,-103,-26
0.065196,-33,-130,8301,-19,-65,-32
0.065335,22,-139,8319,75,-58,5
0.065475,41,-143,8306,12,-71,-26
0.065614,-18,-159,8322,50,-77,-32
0.065753,5,-127,8254,56,-33,5
0.065892,24,-148,8296,63,-103,-70
0.066032,16,-139,8334,19,-71,5
0.066171,39,-100,8327,25,-46,-1
0.066311,10,-132,8337,56,-103,-45
0.06645,24,-196,8340,63,-46,-58
0.066589,-12,-151,8374,6,-103,12
0.066728,-49,-150,8299,44,-58,-7
0.066869,1,-169,8319,88,-77,-77
0.067007,-13,-108,8286,-13,-33,37
0.067146,-25,-95,8323,44,-84,-45
0.067286,-50,-103,8291,50,-71,-1
0.067425,-24,-121,8333,63,-58,-45
0.067566,58,-163,8330,38,-90,-20
0.067704,-2,-105,8350,12,-58,-39
0.067843,35,-92,8301,31,-58,-13
0.067983,11,-178,8314,69,-90,5
0.068121,9,-118,8321,0,-33,-58
0.068261,-8,-112,8322,69,-97,12
0.0684,3,-154,8288,12,-71,-20
0.068539,-9,-135,8265,56,-52,-45
0.068679,-6,-148,8298,19,-103,-13
0.068818,-6,-158,8244,63,-84,-20
0.068957,12,-162,8330,25,-71,-13
0.069097,30,-190,8327,44,-46,-20
0.069236,-37,-161,8256,88,-84,-39
0.069375,6,-129,8268,-25,-77,5
0.069515,34,-84,8289,100,-65,-32
0.069654,1,-149,8287,56,-58,-13
0.069793,-13,-145,8295,31,-84,-26
0.069933,-8,-142,8324,31,-77,-51
0.070072,27,-135,8358,75,-39,31
0.070211,18,-106,8305,12,-90,-45
0.070351,6,-143,8276,94,-77,-39
0.07049,-27,-142,8311,0,-58,-13
0.070629,-4,-166,8308,63,-65,5
0.070768,-11,-141,8292,44,-58,-32
0.070907,25,-90,8278,50,-97,-32
0.071047,19,-126,8298,44,-46,-1
0.071186,-8,-93,8303,44,-103,-26
0.071325,9,-98,8305,31,-46,-26
0.071465,-42,-90,8325,63,-58,-39
0.071604,10,-86,8299,-6,-77,5
0.071744,-11,-157,8294,100,-84,-51
0.071883,-5,-164,8346,6,-71,-1
0.072023,-22,-113,8283,6,-52,18
0.072162,23,-168,8289,107,-84,-51
0.072303,-29,-141,8323,6,-84,-7
0.072441,-25,-112,8316,44,-26,-7
0.072579,40,-104,8320,31,-71,-13
0.072719,2,-87,8300,56,-58,-39
0.072859,-22,-95,8290,31,-58,-26
0.073002,1,-117,8342,38,-97,5
0.073137,26,-137,8342,31,-58,-51
0.073276,-36,-134,8292,44,-77,12
0.073415,-4,-113,8342,50,-52,-58
0.073555,-8,-124,8225,56,-77,-1
0.073694,41,-104,8302,19,-46,-1
0.073833,45,-146,8310,50,-71,-39
0.073972,2,-85,8264,56,-65,-32
0.074112,-8,-143,8301,31,-77,-7
0.074251,37,-147,8268,88,-84,-26
0.074391,39,-177,8300,19,-26,-13
0.07453,61,-134,8267,12,-84,-26
0.074669,17,-164,8291,63,-46,-7
0.074811,43,-165,8276,63,-109,-70
0.074948,9,-141,8313,12,-39,31
0.075087,-30,-155,8305,56,-71,-20
0.075226,-26,-102,8284,44,-71,-64
0.075367,41,-179,8289,69,-58,5
0.075505,-20,-107,8274,12,-39,-20
0.075644,-28,-123,8338,63,-90,-45
0.075783,4,-155,8256,31,-58,18
0.075923,49,-108,8279,44,-84,-20
0.076062,-19,-135,8364,56,-84,-89
0.076202,6,-167,8324,50,-58,37
0.076341,41,-104,8256,44,-84,-39
0.07648,19,-81,8240,44,-46,-32
0.076621,29,-102,8250,19,-77,-1
0.076759,20,-111,8280,82,-122,-39
0.076898,-29,-126,8294,38,-46,-32
0.077037,20,-171,8301,25,-90,12
0.077177,20,-165,8319,56,-46,-39
0.077316,21,-96,8267,44,-97,-20
0.077455,3,-118,8305,63,-46,-20
0.077594,-29,-145,8270,12,-84,12
0.077734,46,-155,8306,63,-58,-51
0.077873,11,-105,8298,50,-65,-32
0.078012,-18,-131,8292,19,-71,18
0.078152,6,-147,8320,25,-52,-51
0.078291,34,-115,8279,50,-97,-45
0.07843,-15,-116,8284,25,-39,37
0.078569,-20,-115,8313,63,-90,-39
0.078709,-22,-157,8288,63,-77,-20
0.078848,1,-143,8318,19,-97,-45
0.078988,8,-112,8341,50,-14,24
0.079127,10,-116,8312,44,-97,-26
0.079266,-6,-139,8289,31,-65,-45
0.079406,6,-124,8283,44,-77,-39
0.079545,3,-146,8327,31,-46,12
0.079684,14,-121,8332,82,-77,-32
0.079823,25,-142,8295,19,-90,-45
0.079963,4,-165,8312,56,-33,12
0.080102,20,-126,8298,12,-58,-20
0.080242,53,-83,8343,63,-109,-45
0.08038,-4,-139,8312,19,-33,12
0.08052,34,-101,8269,69,-109,-64
0.080659,-2,-100,8323,38,-52,18
0.080798,-36,-164,8352,63,-71,-64
0.080938,7,-102,8354,6,-71,24
0.081077,6,-143,8346,56,-65,-58
0.081216,-10,-147,8301,38,-71,37
0.081355,22,-136,8275,25,-46,-64
0.081496,-2,-179,8296,75,-77,-7
0.081634,-17,-118,8242,19,-58,-13
0.081774,3,-119,8297,63,-109,-26
0.081913,6,-104,8307,25,-65,-39
0.082053,1,-132,8297,63,-46,-1
0.082192,-7,-165,8337,12,-90,-26
0.082332,42,-143,8331,63,-39,-13
0.08247,26,-93,8293,63,-148,-51
0.082611,5,-111,8285,12,-7,12
0.082749,4,-155,8327,63,-103,-32
0.082888,-12,-200,8297,25,-26,-39
0.083027,8,-177,8213,31,-97,-1
0.083167,29,-142,8332,88,-90,-64
0.083308,90,-130,8328,6,-7,24
0.083445,28,-101,8340,50,-109,-51
0.083585,-4,-132,8290,56,-46,5
0.083724,-8,-96,8332,12,-109,-51
0.083864,-3,-95,8331,44,-14,18
0.084003,-7,-115,8288,56,-97,-39
0.084142,16,-130,8295,25,-65,-26
0.084281,-29,-139,8288,38,-71,-13
0.08442,-44,-160,8331,50,-65,-20
0.08456,-12,-138,8340,63,-90,-7
0.084699,11,-103,8299,-13,-65,-26
0.084838,-10,-84,8291,75,-71,-26
0.084978,5,-138,8309,75,-46,-32
0.085117,-34,-108,8242,6,-97,-13
0.085256,15,-140,8284,63,-65,-13
0.085396,-11,-91,8324,75,-65,-32
0.085535,10,-147,8341,31,-71,-39
0.085674,-18,-157,8280,31,-97,-20
0.085814,-4,-72,8288,25,-65,-13
0.085953,-33,-136,8339,56,-39,12
0.086094,19,-107,8334,44,-116,-64
0.086231,28,-106,8307,44,-77,-1
0.086371,26,-182,8285,50,-39,-1
0.08651,44,-131,8288,69,-109,-45
0.086649,-4,-132,8331,-25,-46,-7
0.086789,-41,-174,8286,100,-84,-13
0.086928,-13,-175,8280,38,-90,-58
0.087068,9,-191,8325,31,-46,43
0.087207,34,-115,8327,63,-109,-51
0.087346,17,-154,8335,50,-33,-20
0.087485,-24,-111,8257,38,-116,-13
0.087625,-6,-79,8311,50,-46,12
0.087764,-37,-114,8366,69,-109,-83
0.087903,-8,-105,8310,6,-46,31
0.088043,11,-149,8284,63,-90,-70
0.088182,-6,-133,8325,50,-46,-20
0.088321,-40,-142,8322,38,-33,12
0.088461,2,-80,8289,56,-122,-64
0.0886,54,-98,8271,6,-58,12
0.088739,21,-135,8317,82,-52,-39
0.088878,-46,-123,8261,-25,-71,12
0.089018,18,-127,8304,107,-97,-70
0.089157,12,-98,8288,31,-33,18
0.089296,-21,-94,8287,-6,-58,-26
0.089436,-4,-144,8292,107,-103,-51
0.089575,36,-196,8309,25,-46,18
0.089714,32,-93,8331,12,-52,-26
0.089853,-9,-105,8319,100,-97,-20
0.089993,13,-161,8304,0,-65,-20
0.090132,-9,-164,8305,50,-58,-20
0.090271,-58,-153,8319,44,-77,-26
0.090411,-3,-113,8301,38,-39,18
0.09055,24,-112,8316,38,-103,-70
0.090689,-14,-106,8269,56,-58,12
0.090829,15,-152,8310,19,-77,-39
0.090968,22,-150,8323,69,-52,-26
0.091107,-47,-148,8296,19,-71,5
0.091246,-25,-122,8274,50,-77,-39
0.091386,-90,-88,8333,56,-77,-39
0.091525,9,-107,8279,31,-39,18
0.091665,25,-96,8311,56,-103,-39
0.091804,-33,-112,8334,19,-52,5
0.091944,3,-78,8258,75,-71,-32
0.092082,18,-107,8285,44,-84,-45
0.092223,-6,-126,8301,38,-52,24
0.092361,-45,-200,8294,-25,-71,-39
0.092502,-2,-155,8254,88,-71,5
0.09264,-10,-128,8315,31,-65,-51
0.092779,42,-83,8294,50,-84,-26
0.092918,-7,-103,8368,44,-39,-26
0.093058,30,-122,8320,31,-58,-7
0.093197,50,-124,8285,88,-97,-32
0.093336,-25,-106,8288,0,-65,-26
0.093478,27,-149,8379,44,-39,-1
0.093615,-1,-156,8350,56,-97,-45
0.093754,31,-132,8272,63,-46,-13
0.093893,37,-94,8258,25,-65,-20
0.094033,52,-126,8257,69,-84,-45
0.094172,-3,-144,8307,31,-71,-1
0.094312,-24,-74,8315,56,-71,-26
0.094451,-11,-112,8269,38,-58,-20
0.09459,33,-121,8296,31,-84,-13
0.094729,-32,-146,8293,44,-71,-45
0.094869,9,-112,8305,38,-65,-1
0.095008,15,-168,8276,50,-77,-45
0.095147,71,-138,8294,-13,-65,12
0.095287,53,-123,8276,75,-77,-32
0.095426,31,-95,8331,56,-52,-45
0.095566,9,-91,8320,6,-58,18
0.095704,43,-129,8290,50,-71,-77
0.095844,-14,-109,8322,63,-97,18
0.095983,-10,-98,8290,50,-39,-45
0.096122,-2,-163,8301,6,-71,5
0.096262,8,-165,8280,82,-77,-20
0.096401,32,-163,8323,44,-84,-26
0.096544,-9,-107,8300,38,-33,-13
0.09668,47,-66,8324,38,-90,-20
0.096819,-12,-105,8353,44,-90,-45
0.096958,3,-137,8324,44,-39,24
0.097098,-19,-106,8316,38,-77,-64
0.097237,2,-119,8285,31,-84,-1
0.097376,60,-170,8290,82,-103,-26
0.097515,6,-140,8317,-6,-46,-7
0.097655,-24,-152,8284,75,-97,-45
0.097794,-48,-131,8322,63,-39,5
0.097933,2,-166,8286,-6,-84,-7
0.098073,30,-109,8293,69,-90,-51
0.098212,38,-90,8272,50,-71,-1
0.098351,-21,-149,8277,25,-52,-20
0.098491,-44,-117,8280,31,-71,-26
0.09863,-8,-103,8329,63,-109,-32
0.098769,29,-98,8321,6,-52,-7
0.098909,-7,-76,8314,56,-33,-20
0.099048,16,-86,8318,38,-116,5
0.099187,36,-120,8316,44,-58,-7
0.099326,27,-163,8339,69,-65,-51
0.099466,54,-142,8292,56,-65,-32
0.099606,-5,-198,8343,12,-58,-1
0.099745,-13,-144,8358,56,-65,-20
0.099884,37,-94,8330,82,-71,-20
0.100024,8,-93,8362,-6,-77,-39
0.100162,-6,-139,8331,63,-84,-1
0.100302,-42,-123,8326,31,-52,-20
0.100441,15,-104,8314,31,-46,-26
0.10058,4,-115,8331,50,-103,-26
0.100719,-26,-118,8302,63,-58,-20
0.100859,1,-139,8318,50,-71,-20
0.100998,56,-83,8336,25,-65,-7
0.101137,28,-111,8285,63,-116,-45
0.101279,4,-144,8308,75,-39,-39
0.101416,-26,-145,8332,-6,-84,12
0.101555,15,-114,8352,75,-58,-45
0.101695,14,-89,8297,31,-90,-26
0.101834,-14,-193,8343,50,-46,-26
0.101973,-16,-179,8282,50,-77,-7
0.102114,12,-152,8319,50,-77,-26
0.102256,-31,-136,8300,25,-77,-1
0.102391,-7,-120,8360,56,-71,-32
0.10253,55,-174,8330,38,-84,-20
0.10267,-4,-174,8317,56,-39,-7
0.102809,-39,-142,8280,56,-97,-58
0.102948,-17,-103,8317,38,-58,-13
0.103088,70,-139,8298,25,-39,-7
0.103227,23,-144,8322,44,-109,-7
0.103366,-22,-103,8279,63,-71,-51
0.103506,15,-153,8249,38,-39,-20
0.103645,15,-115,8327,56,-84,-32
0.103784,32,-94,8300,44,-103,-32
0.103924,50,-133,8334,31,-33,-7
0.104063,-9,-193,8320,31,-103,-32
0.104202,9,-129,8304,31,-58,-32
0.104341,-10,-128,8322,75,-52,-13
0.104481,8,-117,8279,31,-84,-20
0.10462,24,-157,8308,19,-58,-32
0.104759,-11,-181,8337,56,-71,-32
0.104899,0,-128,8291,56,-103,-32
0.105038,41,-147,8286,25,-33,24
0.105177,3,-160,8258,38,-65,-51
0.105317,-22,-151,8270,82,-109,-20
0.105456,4,-126,8355,25,-7,-1
0.105595,-29,-68,8308,63,-122,-58
0.105735,1,-105,8332,-13,-52,-13
0.105874,20,-143,8330,75,-65,-13
0.106016,-3,-161,8375,50,-77,-32
0.106152,-2,-110,8272,50,-46,-7
0.106292,-5,-135,8268,19,-58,-32
0.106431,2,-172,8310,56,-116,-39
0.10657,6,-171,8319,82,-71,-13
0.10671,2,-176,8384,-31,-7,-7
0.106849,-64,-153,8358,126,-128,-45
0.106988,-24,-142,8328,-19,-52,-1
0.107128,12,-146,8353,94,-65,-51
0.107267,-2,-135,8328,6,-84,24
0.107406,-38,-130,8325,56,-65,-45
0.107546,-40,-149,8298,69,-71,-13
0.107685,-33,-128,8303,50,-109,-77
0.107824,-48,-149,8274,-13,-7,43
0.107963,-47,-142,8282,88,-135,-70
0.108103,21,-143,8308,38,-26,12
0.108242,6,-120,8315,44,-128,-51
0.108381,16,-114,8360,38,-33,-20
0.108521,-9,-59,8356,75,-90,-7
0.10866,-7,-130,8275,31,-71,-13
0.108799,69,-103,8269,25,-65,-51
0.108939,49,-141,8258,50,-84,-13
0.109078,8,-158,8283,19,-52,-13
0.109217,-34,-175,8341,56,-90,-39
0.109357,-17,-124,8314,25,-71,5
0.109496,-2,-115,8274,44,-71,-20
0.109635,12,-117,8281,82,-84,-26
0.109775,19,-125,8291,31,-65,-45
0.109914,21,-191,8302,12,-58,5
0.110053,2,-208,8309,82,-90,-45
0.110192,-21,-186,8300,0,-77,-7
0.110332,12,-158,8304,56,-116,-51
0.110471,72,-62,8344,75,-52,-7
0.11061,35,-146,8339,6,-58,5
0.110755,17,-86,8318,63,-97,-64
0.110889,20,-100,8310,31,-52,-20
0.111028,-4,-154,8283,-13,-52,12
0.111168,22,-149,8355,107,-116,-51
0.111307,20,-85,8284,25,-39,-13
0.111446,-7,-139,8312,50,-116,-45
0.111585,1,-122,8323,56,-52,24
0.111725,37,-153,8310,19,-97,-70
0.111864,47,-98,8329,44,-33,5
0.112003,10,-132,8351,31,-90,-32
0.112143,10,-167,8283,63,-52,5
0.112282,-13,-164,8253,19,-90,-39
0.112421,3,-75,8252,75,-58,-13
0.112561,-36,-90,8294,0,-65,-7
0.1127,-44,-123,8303,63,-84,-32
0.112839,-17,-139,8314,44,-65,-1
0.112979,6,-138,8279,44,-71,-20
0.113118,10,-151,8323,56,-90,-45
0.113257,-30,-106,8285,69,-71,-13
0.113396,-2,-132,8279,50,-46,5
0.113536,-33,-128,8323,50,-103,-45
0.113675,-17,-102,8258,19,-65,-20
0.113814,35,-134,8300,63,-90,-32
0.113954,62,-98,8304,31,-26,12
0.114093,20,-96,8267,50,-116,-64
0.114232,-5,-188,8329,63,-39,-13
0.114372,19,-157,8293,31,-103,-1
0.114511,21,-98,8295,50,-58,-39
0.11465,33,-117,8275,44,-71,-32
0.11479,26,-94,8286,38,-77,18
0.114929,57,-78,8298,75,-90,-64
0.115068,-16,-97,8307,-13,-33,12
0.115207,43,-114,8303,88,-65,-39
0.115347,13,-103,8295,12,-65,-13
0.115486,11,-164,8343,44,-90,5
0.115625,22,-198,8353,63,-84,-70
0.115765,47,-168,8289,12,-26,5
0.115904,15,-116,8262,63,-103,-20
0.116043,-19,-122,8280,56,-58,-7
0.116183,48,-150,8325,12,-90,-64
0.116322,2,-105,8331,56,-52,5
0.116461,32,-121,8304,19,-65,-45
0.116601,-19,-146,8283,69,-71,-7
0.11674,11,-121,8293,0,-71,-26
0.116879,-5,-126,8322,50,-71,-20
0.117018,8,-155,8295,50,-58,-26
0.117158,1,-124,8303,12,-52,-32
0.117297,-11,-146,8291,75,-90,-26
0.117436,32,-61,8290,25,-97,-26
0.117576,-31,-89,8300,75,-46,-7
0.117715,14,-133,8322,19,-52,-7
0.117854,-34,-121,8321,63,-84,-32
0.117994,-41,-163,8321,19,-58,-26
0.118133,-33,-88,8260,56,-65,5
0.118272,4,-110,8320,50,-77,-51
0.118412,-11,-113,8317,12,-39,-20
0.118551,-12,-132,8298,88,-116,18
0.11869,-33,-108,8342,44,-46,-64
0.118829,38,-87,8279,12,-65,-7
0.118969,-16,-80,8322,63,-65,-7
0.119108,-13,-107,8310,82,-122,-51
0.119247,14,-93,8302,50,-39,-7
0.119387,-21,-173,8331,-6,-77,-26
0.119526,-48,-141,8335,50,-84,-26
0.119665,25,-103,8307,44,-65,-20
0.119805,27,-70,8285,63,-71,-13
0.119944,27,-151,8303,38,-77,-45
0.120083,18,-159,8272,0,-46,12
0.120223,24,-173,8289,107,-97,-58
0.120362,-7,-113,8305,12,-52,-7
0.120501,-9,-129,8321,44,-97,-20
0.12064,22,-124,8312,38,-65,-20
0.12078,20,-177,8308,50,-33,-26
0.120919,33,-189,8294,44,-116,-7
0.121058,72,-84,8291,50,-52,-20
0.121198,-12,-84,8320,50,-65,-39
0.121337,-11,-85,8285,38,-58,5
0.121476,-17,-134,8308,56,-84,-32
0.121616,-15,-157,8288,44,-39,-7
0.121755,-68,-150,8298,38,-77,-20
0.121894,13,-145,8313,38,-90,-32
0.122034,-27,-111,8325,94,-39,-26
0.122174,76,-123,8334,-19,-52,24
0.122312,-10,-144,8327,69,-103,-70
0.122453,-14,-155,8283,56,-71,-20
0.122591,-6,-104,8341,12,-58,5
0.122731,-13,-138,8293,88,-77,-26
0.122869,-9,-129,8317,25,-58,-32
0.12301,57,-133,8299,44,-84,-13
0.123148,3,-155,8310,38,-33,-26
0.123288,-3,-134,8280,44,-90,-39
0.123427,-17,-110,8279,12,-46,12
0.123569,3,-76,8320,75,-90,-32
0.123705,-16,-152,8297,12,-33,-26
0.123846,29,-155,8347,63,-103,-26
0.123984,-15,-117,8287,25,-52,-26
0.124123,21,-142,8337,25,-97,-7
0.124263,18,-135,8273,44,-33,-13
0.124402,-44,-150,8343,25,-90,-39
0.124541,-9,-187,8300,75,-77,-7
0.124682,33,-161,8339,12,-33,-20
0.12482,-40,-181,8302,75,-109,5
0.124962,-45,-72,8325,12,-52,-64
0.125098,-17,-110,8277,82,-103,-7
0.125239,30,-145,8271,0,-14,-32
0.125379,6,-137,8298,69,-103,-7
0.125516,-56,-146,8275,50,-77,-32
0.125656,-44,-131,8278,25,-52,-26
0.125795,52,-124,8337,56,-97,-26
0.125936,0,-127,8341,-6,-71,-7
0.126075,32,-101,8265,69,-58,-13
0.126214,2,-145,8304,12,-71,-13
0.126352,3,-130,8309,56,-65,-39
0.126491,43,-189,8309,75,-65,-32
0.126633,41,-131,8301,6,-71,12
0.12677,-12,-188,8294,44,-77,-32
0.126909,24,-149,8295,56,-97,-7
0.12705,23,-115,8276,6,-26,-26
0.127188,-70,-130,8220,82,-97,-32
0.127327,-17,-124,8250,50,-77,-26
0.127467,14,-181,8329,-6,-33,-1
0.127606,-8,-183,8305,94,-109,-32
0.127745,41,-117,8290,31,-46,-13
0.127884,6,-160,8260,31,-90,-32
0.128024,-28,-138,8278,44,-90,-26
0.128163,14,-80,8300,88,-65,-7
0.128302,-10,-106,8257,12,-52,-39
0.128442,34,-93,8304,38,-65,5
0.128581,-18,-160,8316,25,-84,-20
0.12872,64,-120,8313,75,-97,-32
0.12886,63,-158,8273,6,-46,-13
0.128999,-54,-196,8297,56,-90,-20
0.129138,49,-108,8311,38,-58,-7
0.129277,-14,-156,8288,82,-90,-13
0.129417,5,-155,8287,-25,-46,18
0.129556,35,-139,8321,132,-97,-83
0.129695,17,-104,8323,-13,-52,-1
0.129835,36,-111,8278,82,-77,-20
0.129974,37,-129,8293,6,-39,-7
0.130113,48,-127,8293,50,-84,-13
0.130253,17,-162,8308,50,-65,-26
0.130392,17,-93,8300,50,-52,-26
0.130532,8,-91,8242,12,-97,-1
0.130671,3,-123,8304,50,-65,-45
0.130811,8,-150,8320,88,-122,-58
0.130952,6,-136,8298,-6,-14,12
0.131089,-3,-100,8291,44,-71,24
0.131228,-28,-148,8331,50,-103,-89
0.131367,50,-140,8323,56,-26,12
0.131507,69,-81,8320,44,-77,-20
0.131646,22,-152,8298,12,-84,-26
0.131785,7,-141,8277,75,-77,-13
0.131924,5,-113,8329,63,-52,-45
0.132065,-16,-101,8323,6,-52,-7
0.132203,7,-159,8298,69,-71,-13
0.132342,-24,-126,8305,25,-97,-45
0.132483,55,-128,8308,75,-65,-39
0.132621,34,-136,8252,0,-26,62
0.13276,-34,-120,8321,82,-122,-121
0.132901,22,-114,8278,-13,-33,31
0.133039,2,-175,8302,75,-103,-7
0.133179,-42,-124,8274,69,-65,-58
0.133318,11,-156,8341,-31,-46,-7
0.133457,8,-136,8338,75,-65,-20
0.133596,23,-176,8341,50,-77,-26
0.133736,-23,-136,8352,38,-39,-32
0.133876,8,-79,8300,19,-103,12
0.134014,0,-132,8305,50,-14,-32
0.134154,19,-74,8263,56,-141,-32
0.134293,6,-153,8306,38,-7,-26
0.134432,20,-83,8314,19,-84,-7
0.134572,0,-93,8326,50,-71,-1
0.134712,2,-161,8277,38,-46,-20
0.13485,28,-109,8230,44,-90,-45
0.134989,13,-172,8283,38,-77,-1
0.135129,-51,-123,8375,38,-65,-45
0.135268,13,-189,8359,44,-90,-13
0.135407,16,-103,8352,38,-39,-7
0.135546,-2,-164,8320,31,-116,-32
0.135686,-16,-149,8280,38,-26,-20
0.135825,-17,-114,8280,31,-46,-13
0.135964,20,-105,8330,50,-90,-13
0.136105,-29,-164,8279,63,-109,-51
0.136243,26,-159,8288,6,-58,5
0.136382,1,-130,8284,69,-39,-32
0.136522,1,-183,8308,19,-109,-32
0.136663,-22,-181,8285,56,-39,12
0.136801,-70,-154,8334,50,-71,-32
0.136939,-52,-188,8278,50,-58,-51
0.13708,8,-148,8324,31,-77,5
0.137218,-20,-162,8318,31,-58,-32
0.137357,57,-135,8323,56,-77,-13
0.137497,45,-102,8290,50,-65,-64
0.137637,47,-68,8259,38,-71,24
0.137775,48,-117,8332,25,-77,-7
0.137915,-13,-163,8317,31,-71,-70
0.138054,22,-121,8306,56,-77,-13
0.138193,-21,-102,8347,25,-52,-7
0.138332,31,-149,8325,50,-90,-39
0.138472,29,-154,8308,38,-97,-7
0.138611,-17,-103,8307,69,-46,-32
0.13875,-19,-152,8295,50,-84,-20
0.13889,-7,-152,8315,56,-84,-1
0.139029,33,-172,8286,-6,-33,-32
0.139169,-24,-165,8315,100,-90,-13
0.139308,-10,-162,8278,6,-77,-32
0.139447,72,-113,8310,56,-58,-26
0.139587,19,-68,8281,63,-58,-1
0.139726,-18,-123,8317,19,-77,-39
0.139865,-44,-154,8305,69,-90,-45
0.140004,16,-145,8295,31,-71,18
0.140144,11,-113,8262,31,-46,-32
0.140283,-1,-178,8288,94,-122,-45
0.140422,22,-103,8308,19,-20,37
0.140562,8,-114,8299,69,-103,-70
0.140701,19,-114,8270,0,-39,18
0.14084,10,-126,8253,69,-65,-45
0.14098,27,-152,8274,38,-97,-26
0.141119,8,-182,8323,63,-97,-32
0.141258,-9,-120,8323,44,-65,5
0.141398,-13,-157,8301,56,-39,-32
0.141537,5,-76,8311,25,-84,5
0.141676,6,-125,8287,50,-71,-26
0.141815,62,-133,8285,31,-84,-32
0.141955,45,-106,8317,82,-65,-26
0.142094,32,-123,8331,-6,-46,-13
0.142233,77,-180,8331,44,-103,-45
0.142373,32,-186,8296,69,-65,5
0.142512,7,-165,8298,0,-65,-39
0.142651,2,-167,8297,94,-65,-20
0.142791,71,-172,8294,12,-84,-20
0.142931,46,-123,8309,25,-46,-13
0.143069,27,-173,8338,75,-58,-20
0.143209,29,-133,8306,69,-71,-32
0.143348,37,-149,8320,0,-52,-1
0.143487,13,-147,8289,63,-90,-39
0.143627,-20,-151,8287,50,-77,-20
0.143766,-40,-108,8311,50,-52,-26
0.143905,4,-131,8350,38,-65,-1
0.144044,35,-151,8276,56,-71,-39
0.144183,7,-151,8301,69,-90,-32
0.144323,-38,-133,8288,0,-65,31
0.144462,20,-170,8294,82,-58,-58
0.144601,-23,-176,8242,-6,-58,12
0.144741,-19,-161,8317,82,-90,-51
0.144881,-29,-144,8325,50,-90,12
0.145019,-11,-127,8306,19,-26,-20
0.145159,-2,-119,8328,56,-65,-20
0.145298,44,-112,8275,56,-116,-26
0.145437,19,-145,8279,0,-7,12
0.145577,-24,-117,8276,107,-128,-45
0.145716,-14,-139,8284,-6,-14,-1
0.145855,38,-150,8261,50,-109,-13
0.145994,38,-151,8283,44,-58,-32
0.146134,3,-101,8293,50,-77,-13
0.146273,-3,-98,8328,56,-52,-58
0.146413,26,-147,8299,-6,-58,37
0.146552,3,-151,8263,56,-103,-70
0.146692,-8,-110,8313,69,-33,18
0.146832,24,-95,8305,19,-77,-51
0.14697,38,-119,8317,50,-58,31
0.147109,-19,-162,8286,12,-52,-51
0.147249,13,-138,8301,94,-109,-20
0.147389,-24,-126,8327,-6,-33,-32
0.147527,50,-111,8246,63,-97,-7
0.147666,-14,-164,8303,12,-46,-7
0.147806,31,-172,8304,63,-77,-45
0.147947,34,-145,8345,12,-97,12
0.148084,8,-96,8312,75,-71,-45
0.148224,-54,-126,8308,25,-52,-1
0.148364,-11,-85,8307,31,-65,-32
0.148502,-31,-144,8293,19,-58,-7
0.148646,36,-172,8286,50,-109,-32
0.148782,37,-109,8319,25,-39,-32
0.14892,-47,-125,8297,50,-65,-1
0.149059,8,-142,8311,56,-103,-20
0.149199,-58,-132,8344,44,-52,-7
0.149338,-7,-121,8358,63,-71,-51
0.149477,38,-116,8300,6,-58,-20
0.149616,22,-110,8311,63,-109,-26
0.149756,25,-164,8294,44,-39,-13
0.149895,26,-160,8298,12,-84,-20
0.150035,16,-105,8308,75,-65,-32
0.150174,-2,-142,8302,19,-84,-7
0.150313,6,-165,8280,38,-77,-7
0.150454,88,-170,8340,69,-71,-13
0.150592,12,-144,8330,0,-33,-20
0.150731,-66,-165,8334,38,-97,-39
0.150871,-24,-117,8292,50,-46,-32
0.15101,0,-133,8304,50,-90,-1
0.151151,15,-106,8355,50,-71,-39
0.151288,43,-186,8340,-6,-26,31
0.151431,-12,-177,8324,88,-103,-83
0.151568,-20,-153,8338,38,-46,-1
0.151706,9,-167,8323,50,-77,-13
0.151846,-20,-157,8327,31,-52,-7
0.151985,5,-96,8261,44,-90,-58
0.152124,24,-152,8281,56,-52,5
0.152264,7,-148,8308,94,-84,-32
0.152403,18,-175,8313,-31,-58,-13
0.152543,7,-188,8314,88,-58,-39
0.152682,16,-175,8328,44,-77,5
0.152821,32,-110,8321,31,-71,-32
0.15296,22,-138,8298,50,-77,-1
0.153099,42,-174,8240,56,-77,-64
0.153238,0,-121,8309,0,-46,43
0.153378,-14,-148,8366,50,-71,-64
0.153517,-8,-227,8308,56,-90,-13
0.153657,7,-192,8262,31,-77,-26
0.153796,18,-165,8321,50,-58,-45
0.153935,44,-108,8340,-6,-33,31
0.154075,36,-81,8315,82,-109,-58
0.154214,-14,-132,8349,31,-71,-32
0.154353,69,-138,8324,63,-58,-7
0.154492,46,-79,8308,44,-65,-13
0.154632,19,-78,8320,25,-77,-26
0.154771,26,-136,8292,44,-71,-13
0.15491,39,-123,8325,44,-90,-26
0.155052,47,-132,8291,63,-52,-20
0.15519,9,-114,8346,63,-71,-26
0.155328,-38,-160,8358,44,-65,-26
0.155468,22,-146,8296,19,-77,-26
0.155607,25,-161,8282,50,-46,-7
0.155746,-1,-136,8262,38,-90,-20
0.155885,-1,-145,8364,44,-52,-13
0.156025,42,-164,8344,50,-97,-64
0.156165,-25,-169,8299,31,-39,24
0.156307,28,-126,8311,44,-116,-58
0.156444,40,-86,8325,38,-26,-1
0.156582,-25,-169,8260,44,-97,-20
0.156721,11,-137,8294,38,-65,-13
0.156862,50,-170,8307,50,-90,-64
0.157,25,-155,8329,38,-58,31
0.157139,4,-72,8301,44,-84,-32
0.157279,10,-133,8360,31,-77,-20
0.157418,7,-132,8281,19,-58,-45
0.157557,7,-98,8299,56,-84,-1
0.157698,27,-106,8313,38,-71,-13
0.157836,16,-142,8267,38,-84,-45
0.157975,-27,-111,8266,44,-58,-7
0.158115,-45,-99,8294,63,-77,-13
0.158255,-39,-119,8327,6,-33,-20
0.158393,-39,-166,8341,38,-90,-26
0.158533,15,-105,8304,63,-84,-26
0.158672,44,-133,8360,38,-65,5
0.158811,35,-147,8341,50,-90,-83
0.15895,62,-136,8315,6,-39,43
0.15909,-20,-115,8312,69,-84,-64
0.159229,17,-64,8337,44,-77,5
0.159368,-2,-108,8324,31,-33,-13
0.159508,34,-105,8279,69,-103,-58
0.159647,47,-145,8301,0,-39,5
0.159786,-20,-176,8312,82,-109,-39
0.159925,51,-111,8276,12,-52,31
0.160065,56,-157,8259,88,-71,-70
0.160204,-18,-152,8298,25,-65,24
0.160343,-3,-86,8320,38,-65,-45
0.160483,25,-158,8362,75,-90,-26
0.160622,4,-133,8309,-19,-65,-1
0.160761,28,-137,8278,100,-65,-64
0.160901,2,-118,8308,19,-52,5
0.16104,-18,-120,8289,44,-109,-32
0.161179,-7,-93,8284,44,-65,-20
0.161319,-14,-141,8345,75,-97,-20
0.161458,38,-155,8338,12,-46,-32
0.161597,0,-173,8357,56,-46,-13
0.161736,11,-117,8240,82,-103,-32
0.161877,-14,-132,8245,-31,-39,12
0.162015,-48,-123,8319,82,-71,-83
0.162154,-26,-80,8252,50,-84,37
0.162294,-31,-128,8299,38,-77,-58
0.162433,-32,-141,8375,31,-84,-1
0.162572,-40,-144,8361,69,-71,-39
0.162712,-9,-105,8334,63,-65,18
0.162851,0,-157,8310,6,-46,-32
0.16299,-20,-97,8318,69,-97,-26
0.16313,40,-121,8297,44,-77,-13
0.163269,22,-143,8322,12,-58,-13
0.163408,-40,-142,8384,69,-97,-64
0.163548,23,-140,8344,31,-52,18
0.163687,24,-167,8343,12,-58,-26
0.163826,-45,-152,8244,94,-97,-32
0.163966,-6,-116,8326,19,-58,-26
0.164105,-18,-167,8340,19,-77,-20
0.164244,-57,-176,8283,56,-103,-13
0.164383,22,-150,8280,75,-71,-32
0.164522,17,-144,8321,25,-77,-20
0.164662,-20,-146,8301,38,-52,-1
0.164803,-33,-118,8378,44,-103,-26
0.164941,-28,-94,8312,0,-46,-26
0.16508,12,-136,8278,69,-90,-45
0.165219,12,-140,8290,63,-65,-1
0.165358,-14,-123,8318,25,-39,-51
0.165498,-43,-154,8290,38,-90,31
0.165637,15,-128,8302,75,-103,-64
0.165776,28,-146,8291,19,-33,-7
0.165915,-34,-153,8306,50,-77,-20
0.166055,-21,-129,8293,31,-90,-26
0.166194,16,-104,8311,0,-46,-7
0.166333,5,-93,8289,82,-122,-26
0.166473,-4,-120,8323,63,-33,-26
0.166613,11,-105,8347,-13,-52,18
0.166752,0,-164,8337,82,-109,-45
0.166891,2,-116,8305,44,-97,-13
0.167031,-5,-180,8304,12,-39,-26
0.16717,23,-128,8284,75,-97,-1
0.167313,40,-146,8302,38,-58,-32
0.167448,-35,-96,8271,50,-65,-7
0.167587,-47,-154,8305,50,-77,-20
0.167727,46,-150,8379,19,-65,-26
0.167866,62,-142,8319,44,-84,5
0.168006,-15,-74,8303,56,-26,-45
0.168145,50,-92,8333,44,-109,-20
0.168285,35,-98,8321,44,-97,-51
0.168423,-13,-135,8305,19,-20,24
0.168563,13,-155,8289,63,-103,-45
0.168702,24,-85,8265,38,-58,-32
0.168841,26,-158,8282,44,-77,-20
0.168981,-46,-186,8323,44,-77,-7
0.16912,12,-177,8360,38,-46,-1
0.16926,44,-128,8307,44,-65,-20
0.169398,37,-111,8305,63,-122,-45
0.169538,32,-129,8295,31,-39,5
0.169679,-13,-135,8326,50,-71,-51
0.169816,-70,-182,8312,50,-46,-13
0.169956,18,-132,8249,-19,-77,-7
0.170095,-2,-135,8313,107,-65,-32
0.170235,-1,-157,8296,19,-77,-1
0.170373,71,-130,8355,63,-84,-39
0.170513,61,-85,8312,31,-58,-20
0.170652,36,-115,8292,25,-65,-45
0.170792,52,-132,8284,31,-116,12
0.170931,-5,-188,8325,44,-52,-26
0.17107,34,-110,8365,69,-39,-26
0.17121,21,-154,8282,38,-84,-7
0.171349,-7,-119,8306,56,-97,-51
0.171488,42,-122,8321,50,-65,18
0.171627,17,-99,8324,19,-58,-51
0.171767,-5,-134,8326,63,-65,-1
0.171906,26,-94,8270,75,-71,-58
0.172045,-2,-105,8297,12,-58,18
0.172185,32,-140,8318,75,-58,-1
0.172324,19,-109,8292,25,-97,-64
0.172463,-13,-105,8307,69,-14,12
0.172602,21,-108,8371,31,-116,-32
0.172742,20,-88,8339,6,-52,-26
0.172881,-20,-62,8329,88,-84,-20
0.17302,-12,-171,8325,31,-58,-32
0.17316,32,-139,8289,25,-71,-7
0.173299,16,-187,8298,50,-97,-26
0.173438,37,-156,8291,50,-39,-13
0.173578,-27,-127,8270,-13,-84,5
0.173717,-6,-124,8298,94,-116,-58
0.173856,-5,-203,8284,19,-14,-7
0.173996,-1,-166,8358,38,-122,-26
0.174135,-39,-115,8352,50,-46,-26
0.174274,-48,-186,8340,25,-52,24
0.174413,68,-124,8264,44,-84,-64
0.174553,50,-76,8252,50,-97,-7
0.174692,42,-108,8307,63,-71,-39
0.174832,38,-91,8307,0,-39,5
0.174971,14,-164,8289,56,-84,-39
0.17511,9,-175,8318,75,-109,-32
0.175249,-17,-138,8284,12,-46,-32
0.175389,13,-143,8277,50,-71,-7
0.175528,10,-164,8301,50,-71,-1
0.175667,23,-139,8294,38,-65,-39
0.175806,-27,-135,8293,12,-90,-26
0.175946,-9,-132,8255,82,-52,-13
0.176085,-27,-112,8268,38,-46,-13
0.176224,0,-111,8329,31,-97,-45
0.176364,32,-95,8212,38,-39,18
0.176503,10,-130,8263,63,-97,-64
0.176642,47,-169,8308,6,-84,5
0.176782,19,-170,8300,75,-65,-20
0.176923,-14,-123,8338,38,-97,-45
0.17706,50,-101,8331,44,-26,-1
0.177199,6,-136,8301,88,-109,-13
0.17734,-1,-140,8287,0,-52,-1
0.177478,36,-113,8292,63,-39,-51
0.177617,-3,-110,8283,69,-109,-39
0.177757,-16,-68,8332,6,-52,12
0.177896,-27,-173,8272,50,-58,-45
0.178035,7,-144,8310,25,-58,18
0.178176,17,-149,8331,56,-122,-89
0.178314,2,-123,8277,6,-7,31
0.178454,13,-88,8287,69,-90,-32
0.178593,22,-115,8292,50,-52,-7
0.178732,10,-145,8299,25,-58,-58
0.178871,2,-149,8279,56,-90,-7
0.179011,-28,-139,8274,0,-46,18
0.17915,-26,-147,8263,82,-58,-83
0.179289,16,-90,8244,31,-65,31
0.179429,-8,-184,8331,31,-84,-26
0.179568,-23,-135,8264,75,-97,-45
0.179707,-29,-113,8269,12,-39,5
0.179846,-3,-104,8275,63,-84,-26
0.179986,-39,-116,8301,50,-71,-45
0.180125,-20,-82,8299,19,-33,24
0.180265,-14,-135,8284,75,-141,-77
0.180404,-38,-153,8278,38,-20,18
0.180543,-30,-158,8338,63,-109,-70
0.180682,-39,-165,8305,38,-65,18
0.180824,12,-142,8293,31,-58,-51
0.180961,-61,-150,8324,44,-84,-7
0.1811,-20,-162,8259,50,-65,-20
0.18124,0,-128,8319,31,-65,-32
0.181379,18,-152,8329,44,-65,-32
0.181518,-12,-160,8296,69,-103,-7
0.181658,2,-122,8324,6,-52,-1
0.181797,19,-166,8348,63,-84,-51
0.181936,20,-135,8379,44,-58,-1
0.182075,10,-175,8299,44,-65,-39
0.182215,-17,-184,8295,44,-84,-32
0.182354,-31,-170,8291,38,-65,-7
0.182494,11,-117,8308,44,-52,-1
0.182633,1,-90,8289,44,-71,-26
0.182772,10,-108,8292,25,-97,-32
0.182911,9,-88,8296,63,-77,-26
0.18305,14,-119,8286,25,-71,-7
0.18319,7,-106,8281,75,-65,-51
0.183329,22,-124,8282,38,-46,18
0.183469,1,-68,8294,31,-71,-13
0.183608,16,-118,8299,69,-141,-58
0.183747,-26,-130,8338,38,-39,-1
0.183887,-30,-157,8322,25,-58,-7
0.184026,-48,-147,8305,75,-77,-39
0.184165,-14,-190,8335,38,-90,-20
0.184307,33,-112,8302,38,-52,-1
0.184444,28,-127,8324,56,-46,-13
0.184583,40,-99,8277,56,-135,-58
0.184722,51,-140,8287,12,-33,5
0.184861,9,-137,8296,69,-97,-58
0.185003,-42,-167,8307,19,-14,31
0.18514,15,-118,8298,75,-116,-45
0.185279,44,-123,8331,44,-65,-32
0.185419,47,-145,8315,44,-58,-7
0.185558,12,-110,8327,38,-77,-20
0.185697,-19,-84,8316,56,-97,-39
0.185837,-27,-111,8354,38,-33,5
0.185976,-4,-126,8306,38,-90,-32
0.186115,-51,-157,8275,31,-71,-20
0.186254,14,-135,8325,44,-71,-32
0.186394,17,-123,8327,56,-71,12
0.186533,53,-110,8316,-6,-46,-51
0.186673,15,-102,8340,100,-103,-20
0.186812,9,-139,8284,6,-52,5
0.186951,4,-116,8310,63,-84,-58
0.18709,49,-151,8320,31,-58,18
0.187231,29,-113,8306,56,-84,-77
0.187369,27,-124,8282,25,-58,43
0.187508,8,-152,8327,63,-84,-83
0.187648,-15,-172,8327,38,-20,50
0.187787,-9,-162,8347,50,-128,-70
0.187926,-25,-134,8293,12,-26,18
0.188067,-11,-146,8351,82,-65,-39
0.188205,-10,-164,8334,0,-65,-26
0.188345,29,-138,8279,63,-65,-13
0.188484,-10,-152,8260,50,-90,-39
0.188623,28,-109,8256,38,-65,-1
0.188762,12,-138,8307,25,-58,-7
0.188902,-3,-208,8353,50,-90,-20
0.189041,-24,-154,8300,56,-90,-32
0.18918,1,-154,8281,0,-52,-32
0.189319,17,-122,8336,82,-77,24
0.189459,19,-154,8281,6,-58,-45
0.189598,-16,-124,8347,63,-65,-13
0.189737,24,-139,8266,25,-90,-45
0.189877,59,-129,8312,44,-52,-1
0.190016,9,-165,8315,50,-77,-13
0.190155,-34,-173,8278,44,-65,-45
0.190295,-23,-152,8311,56,-103,-13
0.190434,22,-177,8273,56,-71,-13
0.190573,-2,-162,8286,31,-71,-7
0.190712,15,-131,8296,44,-52,-26
0.190852,4,-150,8363,69,-77,-51
0.190991,48,-205,8329,19,-84,18
0.191131,31,-137,8251,50,-58,-45
0.19127,32,-114,8235,31,-33,5
0.191409,-19,-94,8298,44,-116,-58
0.191548,-2,-127,8301,19,-26,24
0.191688,-18,-120,8306,63,-116,-51
0.191827,21,-131,8292,19,-46,-1
0.191966,-2,-213,8284,56,-103,-51
0.192106,23,-121,8274,56,-26,-7
0.192245,17,-136,8280,25,-84,-13
0.192384,-5,-161,8320,19,-77,-39
0.192524,-57,-139,8307,75,-58,-20
0.192663,-10,-120,8327,25,-71,-1
0.192802,60,-122,8253,19,-46,-26
0.192942,-13,-103,8275,100,-71,-13
0.193081,-14,-193,8307,-6,-77,-26
0.19322,12,-138,8306,38,-65,-26
0.19336,11,-119,8287,44,-90,-20
0.193499,-23,-162,8333,50,-71,-45
0.193638,-17,-114,8357,25,-84,-7
0.193777,23,-142,8287,63,-58,-13
0.193917,25,-153,8272,63,-84,-45
0.194056,22,-132,8305,38,-33,-13
0.194195,-38,-136,8288,19,-116,-1
0.194334,3,-140,8316,69,-65,-58
0.194474,8,-114,8305,44,-84,12
0.194614,2,-150,8298,50,-71,-32
0.194754,6,-96,8313,38,-52,-1
0.194892,-56,-80,8298,44,-71,-51
0.195032,2,-151,8273,12,-97,-7
0.19517,19,-141,8294,44,-39,-32
0.19531,-16,-131,8340,25,-65,12
0.195449,5,-152,8331,69,-116,-58
0.195588,-17,-95,8347,31,-58,-1
0.195727,33,-151,8326,44,-65,-13
0.195867,38,-130,8287,38,-71,-26
0.196006,-8,-124,8311,56,-90,-58
0.196145,-5,-131,8268,50,-77,18
0.196285,26,-137,8278,0,-46,5
0.196425,-14,-132,8315,69,-84,-58
0.196564,37,-117,8264,82,-77,-20
0.196703,37,-113,8275,25,-97,-26
0.196842,-4,-147,8310,19,-52,-26
0.196982,14,-156,8329,63,-65,-13
0.197121,4,-107,8318,38,-65,-26
0.197259,11,-151,8340,38,-33,-1
0.197399,-23,-168,8263,38,-103,-20
0.197539,-9,-118,8259,44,-97,-51
0.197678,29,-149,8319,69,-20,12
0.197817,-60,-150,8298,19,-90,-39
0.197956,-24,-87,8269,31,-77,-20
0.198096,18,-181,8319,88,-71,-7
0.198235,33,-126,8252,25,-71,-13
0.198374,3,-69,8296,31,-33,-26
0.198514,26,-119,8325,75,-116,-26
0.198653,-7,-109,8315,19,-58,-13
0.198793,-40,-113,8322,38,-65,-7
0.198932,-6,-117,8312,56,-58,-39
0.199071,-27,-130,8305,56,-90,-26
0.19921,-43,-172,8337,44,-65,-13
0.19935,-17,-126,8338,25,-77,-7
0.199489,-34,-148,8316,88,-58,-32
0.199628,8,-125,8280,38,-109,-26
0.199767,35,-76,8345,50,-33,-20
0.199907,63,-103,8277,12,-109,-7
0.200046,13,-116,8311,38,-7,-7
0.200185,-14,-196,8315,50,-122,-51
0.200325,78,-165,8254,38,-65,-13
0.200464,7,-156,8280,56,-58,-39
0.200603,10,-113,8299,44,-109,-13
0.200743,35,-129,8277,44,-26,-20
0.200882,-4,-157,8286,50,-90,-26
0.201021,-63,-195,8318,19,-84,-13
0.201161,9,-180,8310,44,-20,-13
0.201299,34,-135,8338,44,-128,-39
0.201439,46,-140,8349,38,-7,24
0.201578,3,-106,8290,82,-128,-77
0.201718,15,-146,8274,-6,-26,31
0.201857,2,-171,8342,56,-71,-20
0.201996,-76,-135,8307,63,-90,-45
0.202136,43,-191,8294,31,-39,-20
0.202275,29,-154,8307,31,-84,-1
0.202414,-5,-140,8308,75,-103,-32
0.202554,-30,-108,8226,12,-65,-1
0.202693,40,-122,8261,75,-77,-39
0.202832,-17,-122,8292,38,-52,-13
0.202972,75,-68,8339,44,-103,-20
0.203111,13,-142,8262,31,-46,-26
0.20325,43,-133,8318,31,-90,-20
0.203389,23,-105,8321,56,-65,-20
0.20353,10,-143,8274,38,-58,-1
0.203668,15,-152,8311,69,-84,-39
0.203807,-8,-157,8360,38,-90,-13
0.203947,-68,-132,8318,25,-52,-7
0.204086,-15,-105,8362,82,-77,-32
0.204225,-4,-173,8349,12,-46,-26
0.204365,22,-85,8282,38,-109,12
0.204504,4,-95,8253,75,-46,-64
0.204643,-9,-147,8310,31,-77,5
0.204783,-15,-155,8342,75,-77,-70
0.204922,21,-184,8326,-13,-46,24
0.205061,9,-168,8307,88,-109,-39
0.2052,-16,-186,8308,25,-58,-7
0.20534,-9,-130,8233,38,-52,-58
0.205479,12,-89,8251,50,-90,-26
0.205618,28,-90,8316,50,-39,12
0.205758,32,-134,8319,31,-84,-45
0.205897,63,-165,8358,63,-71,-7
0.206036,61,-128,8293,31,-65,-20
0.206176,31,-144,8284,50,-71,-20
0.206315,25,-167,8231,44,-84,-20
0.206454,46,-77,8299,56,-77,-26
0.206594,-1,-46,8270,0,-58,-1
0.206733,-22,-96,8278,88,-71,-51
0.206872,-12,-133,8293,12,-46,18
0.207011,-8,-165,8350,31,-109,-58
0.207151,32,-165,8303,56,-52,-7
0.207292,16,-113,8298,63,-65,-13
0.207429,-13,-199,8319,25,-97,-26
0.207569,4,-161,8325,44,-58,-26
0.207708,9,-166,8274,12,-77,-7
0.207847,23,-128,8300,75,-52,-32
0.207987,56,-105,8248,44,-71,-26
0.208126,-7,-126,8263,19,-90,-20
0.208267,2,-163,8324,31,-77,-45
0.208405,-3,-160,8288,50,-46,31
0.208544,1,-108,8345,31,-84,-13
0.208683,-1,-163,8298,63,-103,-83
0.208822,29,-155,8305,38,-14,56
0.208962,3,-114,8335,19,-148,-58
0.209101,11,-127,8268,69,-26,-32
0.20924,-32,-123,8267,25,-84,-13
0.20938,-66,-178,8284,69,-90,-32
0.209519,10,-108,8276,6,-65,-1
0.209658,37,-169,8279,100,-77,-20
0.209798,-33,-149,8268,0,-58,-39
0.209937,-12,-129,8299,50,-71,5
0.210076,12,-156,8304,38,-58,-45
0.210216,3,-120,8325,88,-103,-26
0.210355,36,-163,8278,38,-39,-13
0.210494,8,-176,8278,50,-84,-20
0.210633,7,-172,8298,44,-77,-26
0.210773,8,-106,8342,19,-39,5
0.210912,-8,-136,8284,50,-116,-45
0.211051,-15,-161,8258,50,-46,-1
0.211191,-7,-117,8288,19,-65,-45
0.21133,-1,-131,8300,69,-71,-7
0.211469,23,-149,8317,44,-71,-32
0.211609,-11,-133,8291,6,-65,-26
0.211748,6,-134,8275,94,-84,-39
0.211887,-10,-159,8250,12,-90,12
0.212027,14,-80,8296,25,-52,-32
0.212166,18,-86,8291,82,-52,-58
0.212307,-8,-97,8287,-19,-58,24
0.212444,3,-185,8352,107,-84,-51
0.212584,20,-139,8282,6,-77,-13
0.212723,25,-142,8316,63,-71,-1
0.212862,-1,-109,8334,38,-71,-51
0.213002,-31,-150,8318,69,-77,-39
0.213141,-8,-146,8345,-6,-65,24
0.21328,30,-112,8348,75,-71,-45
0.21342,-4,-179,8328,56,-77,-20
0.213559,-15,-113,8295,6,-58,-39
0.213698,39,-120,8304,50,-52,12
0.213838,72,-134,8322,50,-90,-51
0.213977,-20,-136,8357,38,-58,-1
0.214116,3,-125,8316,31,-52,-20
0.214256,61,-102,8272,44,-103,-32
0.214395,-7,-115,8266,56,-65,-13
0.214534,5,-119,8300,38,-52,-32
0.214673,-20,-158,8352,56,-77,-13
0.214813,33,-162,8295,-6,-65,24
0.214952,25,-168,8274,88,-77,-77
0.215091,6,-120,8254,25,-52,5
0.215231,-36,-121,8283,44,-84,-7
0.21537,9,-128,8278,44,-71,-39
0.215509,29,-124,8296,56,-71,-13
0.215649,17,-136,8334,38,-90,-26
0.215788,2,-96,8337,63,-65,-32
0.215927,-18,-104,8254,44,-77,-7
0.216067,30,-69,8286,25,-103,-26
0.216206,-33,-148,8313,56,-46,-32
0.216345,-44,-95,8310,56,-97,-7
0.216484,51,-113,8256,6,-26,-13
0.216624,31,-187,8288,75,-84,-20
0.216767,-2,-129,8360,56,-77,-32
0.216902,13,-160,8286,6,-71,-13
0.217042,23,-106,8353,75,-65,5
0.217181,-4,-124,8329,44,-97,-64
0.21732,10,-160,8261,12,-58,-7
0.21746,10,-96,8269,107,-65,-20
0.217599,45,-114,8245,25,-84,-51
0.217738,52,-131,8300,25,-52,18
0.217878,21,-120,8307,75,-77,-32
0.218017,-39,-118,8320,31,-84,-39
0.218156,12,-141,8327,31,-52,12
0.218295,22,-155,8266,75,-90,-51
0.218435,52,-90,8282,56,-116,-32
0.218574,-8,-127,8288,12,-26,24
0.218713,-30,-140,8315,88,-90,-70
0.218853,11,-148,8321,19,-46,12
0.218992,23,-114,8294,50,-77,-51
0.219131,41,-138,8230,44,-77,-13
0.219271,20,-123,8285,50,-58,-1
0.219412,5,-96,8314,38,-77,-58
0.219549,-24,-156,8302,50,-65,-7
0.219689,22,-116,8263,44,-71,5
0.219831,47,-133,8276,38,-77,-51
0.219967,-2,-166,8260,31,-90,-7
0.220106,19,-94,8285,50,-52,-13
0.220246,55,-76,8357,19,-58,-45
0.220385,0,-132,8324,56,-90,-13
0.220524,-44,-88,8298,44,-33,-39
0.220664,19,-130,8299,25,-52,-13
0.220803,20,-165,8284,38,-84,5
0.220942,-34,-112,8276,56,-77,-77
0.221082,-7,-107,8286,12,-20,24
0.221221,-13,-140,8348,44,-103,-20
0.22136,57,-117,8323,38,-58,-39
0.221502,-14,-145,8331,25,-71,5
0.221639,-18,-100,8334,88,-84,-70
0.221778,63,-108,8312,12,-39,-1
0.221918,15,-218,8326,38,-84,-1
0.222057,14,-122,8292,44,-84,-39
0.222196,-4,-149,8325,63,-103,-51
0.222335,31,-186,8334,19,-52,24
0.222475,27,-134,8363,50,-77,-70
0.222614,-12,-120,8287,38,-39,24
0.222753,10,-126,8273,44,-109,-39
0.222893,8,-130,8310,63,-58,-7
0.223033,16,-85,8316,50,-71,-26
0.223172,31,-101,8340,6,-33,-1
0.22331,2,-139,8353,75,-103,-45
0.22345,-12,-140,8332,25,-77,-7
0.223589,0,-137,8297,69,-84,-32
0.223728,30,-144,8302,56,-77,-1
0.223868,20,-130,8318,19,-58,-20
0.224007,27,-109,8327,56,-84,-26
0.224146,37,-64,8325,31,-71,-26
0.224286,24,-136,8340,38,-71,-20
0.224425,-26,-91,8321,50,-71,-26
0.224564,-27,-123,8328,38,-77,-45
0.224703,-10,-145,8286,31,-58,-1
0.224843,32,-192,8327,19,-52,12
0.224982,1,-132,8270,94,-128,-70
0.225121,-13,-127,8298,25,-46,-13
0.225261,33,-103,8280,0,-52,-7
0.225404,5,-96,8301,107,-90,-51
0.225541,-48,-114,8320,25,-77,24
0.225679,-9,-168,8280,25,-1,-39
0.225818,5,-129,8289,69,-122,-13
0.225959,-21,-121,8268,44,-33,-70
0.226097,4,-116,8285,38,-77,5
0.226237,-4,-105,8249,25,-58,-1
0.226375,15,-147,8300,50,-77,-45
0.226516,-10,-136,8315,56,-103,-26
0.226655,-30,-143,8302,12,-46,5
0.226793,51,-140,8326,19,-65,-39
0.226933,9,-160,8329,88,-84,-26
0.227073,29,-164,8270,31,-58,-32
0.227211,18,-89,8304,69,-97,-20
0.22735,19,-101,8327,19,-58,-13
0.22749,0,-180,8334,38,-65,-13
0.22763,25,-148,8306,75,-84,-45
0.227768,-18,-129,8308,19,-71,-20
0.227908,26,-88,8303,38,-58,12
0.228048,51,-139,8338,31,-77,-64
0.228186,22,-142,8277,56,-39,5
0.228326,52,-150,8331,56,-116,-32
0.228466,5,-177,8286,0,-58,-13
0.228604,-23,-139,8276,56,-46,-26
0.228744,-6,-68,8267,56,-116,-20
0.228884,46,-125,8260,25,-33,-26
0.229022,-18,-156,8272,6,-77,-20
0.229161,-1,-158,8340,56,-58,5
0.229304,10,-146,8349,19,-71,-51
0.22944,-4,-100,8286,75,-58,-7
0.22958,56,-152,8287,-13,-33,-26
0.229719,16,-121,8306,88,-97,-39
0.229859,6,-114,8296,-19,-71,5
0.229997,44,-158,8338,75,-52,-39
0.230137,36,-173,8354,12,-65,-20
0.230276,44,-69,8320,50,-97,-20
0.230416,12,-139,8326,19,-52,-13
0.230555,48,-186,8343,82,-71,-26
0.230694,-5,-147,8307,44,-71,-13
0.230833,-28,-96,8308,25,-46,-26
0.230973,52,-124,8314,44,-77,-32
0.231114,32,-134,8284,19,-65,-7
0.231253,2,-146,8272,94,-77,-20
0.231392,-22,-125,8332,12,-71,-39
0.23153,17,-120,8311,44,-90,5
0.231669,0,-118,8273,63,-77,-39
0.231808,26,-65,8264,-19,25,-1
0.231951,21,-156,8304,100,-167,-51
0.232087,0,-201,8343,6,12,5
0.232226,42,-146,8260,82,-122,-26
0.232365,0,-131,8350,31,-26,-20
0.232505,-35,-122,8344,19,-116,-45
0.232644,-44,-156,8331,50,-58,-1
0.232784,-25,-158,8271,69,-90,-39
0.232923,24,-107,8298,0,-65,12
0.233062,4,-139,8269,56,-84,-26
0.233202,-2,-134,8367,25,-58,-39
0.233341,-14,-142,8304,107,-77,-13
0.23348,-17,-178,8302,-19,-65,-20
0.233621,3,-133,8310,63,-52,12
0.233759,9,-168,8320,69,-103,-83
0.233898,17,-145,8331,-31,12,69
0.234037,-3,-136,8350,100,-141,-83
0.234177,7,-124,8275,19,-26,12
0.234316,76,-102,8322,31,-84,-39
0.234456,93,-109,8270,44,-71,-32
0.234594,14,-129,8299,19,-71,-1
0.234734,34,-93,8259,44,-58,-32
0.234873,1,-180,8322,50,-58,-7
0.235013,-2,-144,8284,44,-90,-26
0.235152,13,-102,8321,75,-77,-45
0.235291,31,-76,8306,6,-39,24
0.23543,7,-187,8274,44,-77,-51
0.23557,-28,-165,8284,38,-65,-1
0.235709,-31,-101,8260,25,-116,-51
0.23585,26,-114,8302,56,-26,18
0.235988,20,-144,8339,19,-77,-26
0.236127,64,-135,8270,50,-77,-32
0.236266,59,-121,8225,50,-65,-20
0.236406,12,-149,8281,44,-77,-13
0.236547,-18,-122,8339,19,-52,-20
0.236684,-2,-120,8293,56,-65,18
0.236825,7,-106,8289,69,-71,-70
0.236963,-27,-94,8281,69,-77,-1
0.237102,-5,-138,8304,6,-58,-1
0.237241,0,-127,8286,56,-122,-64
0.237381,8,-128,8335,75,-20,18
0.23752,-11,-154,8308,-13,-84,-32
0.237659,-7,-115,8264,88,-65,-13
0.237799,23,-128,8299,25,-103,-20
0.237938,-20,-133,8301,44,-46,-39
0.238077,-10,-122,8317,63,-71,-51
0.238217,-2,-160,8318,25,-77,37
0.238356,5,-167,8322,25,-58,-39
0.238495,0,-129,8331,82,-97,-26
0.238635,25,-123,8289,12,-97,-32
0.238774,21,-94,8271,56,-46,12
0.238913,-4,-153,8291,44,-84,-45
0.239053,-13,-141,8272,75,-58,-32
0.239192,-43,-178,8330,38,-128,-39
0.239331,18,-144,8320,50,-20,31
0.23947,18,-159,8335,6,-65,-26
0.23961,-17,-193,8309,107,-128,-45
0.239749,69,-146,8300,-19,-26,12
0.239888,17,-140,8328,75,-97,-39
0.240028,-35,-104,8340,12,-71,-32
0.240167,48,-83,8290,63,-46,5
0.240307,7,-118,8310,38,-90,-39
0.240447,-9,-157,8298,25,-39,-13
0.240585,12,-110,8322,69,-128,-32
0.240724,-21,-83,8302,38,-33,-1
0.240864,20,-120,8313,31,-58,-1
0.241004,5,-138,8269,69,-97,-70
0.241144,47,-86,8258,12,-77,5
0.241282,-11,-66,8344,56,-58,-26
0.241421,-3,-170,8262,56,-84,-39
0.24156,-3,-183,8233,38,-71,-20
0.241699,3,-144,8283,56,-58,12
0.241838,-53,-106,8296,69,-71,-58
0.241978,23,-75,8264,0,-84,-20
0.242117,27,-164,8286,69,-33,12
0.242256,30,-185,8312,63,-122,-58
0.242396,-30,-144,8362,-31,-52,-20
0.242535,4,-129,8325,100,-77,-7
0.242675,47,-78,8271,12,-33,-32
0.242814,33,-117,8294,69,-97,-7
0.242953,42,-139,8282,50,-84,-32
0.243092,-1,-115,8290,38,-58,-1
0.243233,37,-126,8309,25,-103,-58
0.243372,18,-114,8305,44,-39,24
0.24351,40,-98,8306,38,-65,-39
0.24365,12,-133,8360,38,-84,-26
0.243789,21,-174,8309,50,-39,-20
0.243928,7,-168,8322,75,-116,-32
0.244069,5,-164,8325,-44,-26,-13
0.244207,1,-119,8348,113,-77,-51
0.244346,18,-135,8293,-13,-46,18
0.244485,34,-154,8273,69,-84,-20
0.244625,-36,-117,8319,31,-71,-70
0.244764,25,-147,8301,75,-65,18
0.244903,31,-154,8307,-13,-84,-45
0.245045,-8,-142,8283,69,-65,-1
0.245182,5,-183,8302,69,-84,-32
0.245321,3,-140,8258,12,-14,-7
0.245462,48,-85,8273,56,-135,-32
0.2456,46,-123,8308,50,-33,-20
0.245739,-63,-117,8332,19,-71,-58
0.245881,-53,-136,8333,63,-71,5
0.246018,-41,-123,8312,63,-84,-32
0.246157,32,-170,8342,-25,-33,5
0.246298,43,-134,8326,75,-109,-39
0.246436,47,-127,8303,69,-65,-13
0.246575,14,-135,8298,6,-71,-58
0.246714,11,-130,8308,12,-84,12
0.246854,-38,-111,8290,88,-90,-45
0.246993,19,-151,8280,25,-33,-20
0.247132,21,-128,8320,25,-90,5
0.247272,44,-120,8294,63,-52,-39
0.247411,15,-75,8294,38,-90,-32
0.24755,-7,-103,8322,6,-52,43
0.24769,-47,-176,8291,88,-84,-77
0.247829,-3,-131,8268,38,-77,18
0.247968,9,-101,8292,50,-65,-64
0.248107,-5,-126,8340,50,-58,31
0.248247,30,-80,8375,6,-90,-26
0.248386,12,-137,8294,31,-77,-45
0.248525,16,-134,8272,50,-65,-20
0.248665,37,-119,8256,56,-71,-13
0.248804,97,-136,8234,31,-84,-1
0.248943,15,-162,8254,69,-58,-77
0.249083,-5,-172,8341,38,-71,-1
0.249222,21,-174,8325,63,-90,-20
0.249361,63,-160,8308,0,-65,-20
0.249501,29,-134,8270,56,-65,-26
0.24964,-43,-114,8243,50,-71,-1
0.249779,36,-156,8238,31,-90,-45
0.249919,45,-114,8230,50,-84,-13
0.250058,-11,-127,8326,38,-58,-13
0.250197,43,-123,8321,50,-58,-7
0.250336,29,-97,8277,25,-90,-13
0.250476,2,-133,8251,69,-52,-7
0.250615,-28,-110,8299,38,-77,-58
0.250754,-17,-152,8323,69,-71,-13
0.250894,-5,-123,8328,19,-71,-1
0.251033,11,-125,8306,31,-33,-26
0.251172,23,-139,8300,50,-109,-7
0.251312,38,-98,8326,31,-71,-20
0.251451,3,-116,8309,44,-65,-51
0.25159,20,-143,8312,31,-65,12
0.251729,51,-174,8282,44,-77,-13
0.251869,-27,-139,8262,56,-71,-32
0.252008,-10,-85,8306,6,-65,-39
0.252147,-1,-138,8279,75,-77,-39
0.252286,7,-121,8284,6,-52,24
0.252426,81,-109,8279,82,-77,-51
0.252565,45,-162,8289,44,-90,-13
0.252705,-3,-182,8306,44,-71,-32
0.252844,-2,-133,8325,6,-52,12
0.252983,11,-102,8330,75,-77,-51
0.253122,23,-142,8350,38,-84,18
0.253262,40,-120,8313,44,-84,-58
0.253403,8,-186,8296,44,-39,-1
0.25354,40,-147,8239,50,-97,-39
0.25368,22,-166,8256,38,-58,-20
0.253819,19,-147,8304,31,-65,18
0.253958,-9,-148,8311,50,-65,-70
0.2541,-7,-160,8310,56,-84,-26
0.254237,6,-149,8266,25,-14,18
0.254376,-16,-153,8279,38,-122,-58
0.254517,10,-135,8315,63,-71,-26
0.254655,-46,-107,8350,12,-39,12
0.254794,-5,-137,8368,63,-109,-64
0.254934,-77,-134,8339,31,-58,-7
0.255073,37,-84,8307,63,-77,-20
0.255212,-22,-92,8297,12,-26,12
0.255351,-44,-113,8310,69,-116,-58
0.255492,-11,-103,8310,25,-65,-13
0.255631,-9,-115,8344,44,-65,-13
0.25577,12,-121,8306,38,-58,-13
0.255909,28,-136,8298,56,-65,-7
0.256049,-2,-103,8303,56,-71,-64
0.256187,-13,-102,8281,0,-77,5
0.256327,15,-177,8288,88,-84,-45
0.256468,26,-154,8332,25,-39,5
0.256605,-11,-168,8290,44,-90,-51
0.256745,-26,-155,8305,50,-71,5
0.256884,17,-116,8301,44,-52,-7
0.257023,36,-101,8320,63,-141,-51
0.257163,41,-95,8275,-19,6,-1
0.257302,-7,-129,8284,113,-116,-64
0.257441,57,-156,8311,25,-65,5
0.257581,27,-135,8288,25,-58,-26
0.25772,27,-149,8345,94,-135,-32
0.257859,-10,-152,8313,19,6,-13
0.257998,93,-129,8291,31,-103,-1
0.258138,-8,-131,8321,31,-65,-32
0.258277,-13,-143,8266,82,-97,-26
0.258416,14,-167,8268,0,-33,-32
0.258556,42,-176,8277,75,-77,-7
0.258695,10,-167,8271,50,-103,-64
0.258834,-1,-132,8257,6,-58,62
0.258973,-33,-132,8321,75,-77,-70
0.259113,14,-188,8286,12,-77,-32
0.259252,-6,-147,8238,50,-58,24
0.259391,9,-146,8235,44,-65,-39
0.259531,-59,-150,8305,56,-84,-39
0.25967,-33,-166,8317,12,-58,-7
0.259809,6,-162,8280,75,-77,-7
0.259949,6,-141,8262,56,-103,-39
0.260088,-32,-158,8339,0,-65,-1
0.260227,-24,-154,8361,44,-46,-13
0.260367,6,-162,8306,69,-84,-39
0.260506,22,-145,8286,25,-33,-20
0.260645,29,-162,8312,69,-97,-32
0.260785,2,-153,8286,12,-33,5
0.260924,-6,-135,8258,75,-84,-26
0.261063,-5,-131,8335,31,-65,-32
0.261202,-9,-151,8255,63,-71,18
0.261342,-41,-96,8307,31,-71,-70
0.261481,27,-114,8317,63,-58,24
0.26162,67,-149,8306,56,-77,-58
0.261759,16,-110,8294,25,-84,-26
0.261899,-18,-121,8271,44,-46,5
0.262038,-15,-142,8271,38,-46,-20
0.262177,13,-129,8265,63,-109,-45
0.262317,-38,-125,8315,44,-90,5
0.262456,-8,-139,8316,25,-26,-20
0.262595,-4,-95,8256,88,-97,-26
0.262736,62,-143,8254,12,-77,-13
0.262875,-29,-108,8313,31,-14,-20
0.263013,-7,-128,8319,63,-109,-26
0.263153,67,-98,8264,44,-58,-13
0.263292,31,-147,8316,31,-77,-7
0.263431,28,-89,8302,44,-84,-32
0.263571,22,-96,8292,25,-52,12
0.26371,-22,-96,8256,50,-84,-51
0.263849,15,-111,8301,25,-58,12
0.26399,53,-148,8302,38,-46,-51
0.264128,34,-134,8277,75,-65,-20
0.264268,12,-137,8347,38,-84,-1
0.264406,-15,-147,8293,0,-26,-32
0.264546,-36,-166,8286,113,-90,-39
0.264685,27,-137,8315,12,-71,37
0.264824,11,-144,8362,69,-90,-58
0.264964,-35,-151,8357,19,-52,-20
0.265103,32,-113,8320,69,-84,-1
0.265242,17,-128,8282,56,-84,-39
0.265382,45,-130,8285,6,-33,5
0.265523,3,-134,8334,82,-90,-32
0.26566,7,-153,8278,38,-77,-26
0.2658,32,-115,8285,19,-46,-13
0.265941,78,-72,8288,63,-71,-39
0.266078,19,-77,8305,19,-52,-1
0.266218,22,-84,8359,38,-103,-26
0.266357,29,-138,8294,56,-26,-32
0.266497,5,-169,8308,25,-71,-7
0.266635,33,-118,8341,38,-65,-39
0.266775,46,-129,8344,63,-77,12
0.266914,47,-190,8320,38,-77,-64
0.267054,43,-110,8305,19,-65,-7
0.267193,15,-135,8278,50,-77,-20
0.267332,-29,-122,8276,25,-46,-1
0.267471,6,-125,8306,82,-71,-39
0.267611,-4,-144,8324,31,-122,-20
0.26775,-37,-107,8322,44,-33,-13
0.267889,-30,-106,8278,38,-71,-13
0.268029,9,-132,8280,25,-77,12
0.268168,-13,-108,8306,94,-71,-64
0.268307,5,-119,8284,19,-52,-26
0.268446,-19,-192,8364,19,-58,31
0.268586,8,-119,8326,69,-65,-45
0.268725,7,-135,8298,56,-97,-7
0.268864,19,-108,8290,50,-84,-20
0.269004,-25,-119,8304,19,-77,-45
0.269143,-25,-143,8342,31,-33,-26
0.269282,-43,-133,8329,69,-109,-13
0.269422,3,-117,8304,38,-65,18
0.269561,26,-126,8271,31,-65,-70
0.2697,-6,-128,8305,63,-97,-1
0.26984,-17,-128,8342,44,-58,-7
0.269979,40,-148,8315,44,-84,-58
0.270118,6,-112,8326,38,-84,37
0.270258,48,-132,8307,56,-58,-51
0.270397,-15,-142,8296,31,-97,-13
0.270536,12,-124,8307,56,-39,-13
0.270675,-6,-134,8319,12,-71,-20
0.270815,5,-158,8293,69,-71,-20
0.270954,20,-142,8248,38,-109,-39
0.271093,-2,-93,8308,50,-26,-1
0.271233,12,-150,8308,31,-90,-26
0.271372,49,-102,8234,44,-84,-39
0.271511,16,-108,8359,44,-52,18
0.27165,-7,-150,8364,63,-71,-70
0.27179,25,-153,8287,12,-52,31
0.271929,-66,-180,8343,69,-58,-51
0.272068,-35,-142,8351,75,-128,-20
0.272207,46,-138,8296,6,-46,18
0.272347,23,-154,8343,63,-58,-77
0.272487,22,-129,8328,19,-65,37
0.272627,29,-118,8300,56,-77,-58
0.272766,-10,-98,8224,56,-46,-7
0.272905,-4,-145,8305,56,-90,-70
0.273044,6,-147,8340,25,-65,50
0.273183,-46,-136,8274,69,-58,-51
0.273322,-14,-112,8254,25,-103,-13
0.273461,40,-126,8288,25,-65,-26
0.273603,11,-204,8309,44,-65,12
0.27374,-5,-186,8266,50,-84,-70
0.273879,20,-159,8302,31,-39,24
0.274019,17,-147,8320,56,-84,-51
0.274158,17,-159,8308,50,-52,-13
0.274298,5,-100,8384,31,-77,12
0.274436,49,-186,8318,69,-90,-64
0.274577,-2,-194,8336,44,-65,18
0.274715,-8,-177,8273,19,-52,-26
0.274855,-30,-167,8335,63,-90,-26
0.274994,-53,-96,8280,19,-20,-1
0.275133,-7,-95,8320,88,-135,-77
0.275273,23,-151,8417,-13,-58,31
0.275412,1,-128,8280,69,-33,-58
0.275551,12,-94,8269,25,-71,12
0.27569,48,-87,8226,25,-109,-45
0.27583,70,-103,8304,94,-52,-7
0.275969,-19,-85,8259,0,-71,-26
0.276108,-16,-134,8302,44,-58,-26
0.276248,12,-163,8288,69,-84,-13
0.276387,-2,-154,8332,31,-71,-13
0.276526,7,-129,8266,63,-97,-39
0.276667,31,-121,8300,0,-52,-32
0.276805,-24,-127,8276,44,-77,-26
0.276944,-7,-96,8303,38,-84,-26
0.277084,29,-112,8287,63,-39,-13
0.277223,8,-149,8265,0,-71,-26
0.277364,2,-120,8326,82,-65,-20
0.277501,-28,-109,8334,12,-71,-20
0.277641,71,-64,8301,107,-58,-7
0.277781,47,-72,8270,0,-103,-45
0.277919,6,-154,8294,38,-39,-1
0.278059,-10,-119,8318,25,-103,-51
0.278198,-37,-118,8312,56,-39,24
0.278337,6,-141,8261,38,-65,-26
0.278477,42,-150,8264,63,-84,-39
0.278616,53,-145,8255,44,-65,-7
0.278755,48,-83,8280,38,-65,-39
0.278895,21,-112,8299,38,-71,24
0.279034,21,-96,8310,69,-90,-77
0.279173,24,-132,8327,0,-39,24
0.279313,11,-160,8286,94,-109,-58
0.279452,32,-98,8298,0,-39,18
0.279591,-9,-173,8305,69,-90,-13
0.27973,36,-179,8267,25,-84,-45
0.27987,9,-118,8301,56,-77,-26
0.280009,38,-141,8282,56,-65,-1
0.280148,-37,-75,8281,31,-77,-45
0.280287,50,-90,8320,50,-65,-7
0.280427,-42,-107,8308,38,-58,-13
0.280566,8,-107,8366,31,-84,-70
0.280706,-33,-104,8386,50,-58,18
0.280845,3,-177,8307,38,-71,-7
0.280984,5,-185,8304,69,-103,-51
0.281123,-22,-104,8304,19,-33,18
0.281264,28,-147,8304,63,-71,-64
0.281402,-6,-144,8266,82,-58,12
0.281543,5,-167,8311,-6,-97,-26
0.281681,9,-148,8336,38,-26,-26
0.28182,-17,-131,8327,63,-103,-32
0.281959,19,-108,8327,19,-52,18
0.282098,22,-81,8314,38,-77,-45
0.282238,40,-105,8267,6,-65,-13
0.282377,46,-130,8254,119,-46,-45
0.282517,-7,-177,8316,-6,-97,12
0.282656,3,-166,8289,31,-46,-20
0.282795,15,-169,8257,12,-90,-45
0.282934,30,-106,8311,56,-39,5
0.283074,9,-151,8294,25,-97,-32
0.283213,11,-157,8301,38,-46,-32
0.283354,14,-160,8313,44,-128,-20
0.283493,26,-116,8326,19,-26,-7
0.283631,35,-118,8310,63,-90,-45
0.28377,16,-85,8248,38,-20,-1
0.28391,16,-144,8280,6,-90,-26
0.284049,18,-170,8320,100,-90,-45
0.28419,27,-164,8336,50,-65,-32
0.284327,-25,-139,8286,-6,-33,5
0.284469,1,-71,8289,82,-109,-39
0.284606,-29,-148,8273,12,-33,-39
0.284746,-62,-130,8344,31,-84,18
0.284885,20,-142,8300,56,-65,-45
0.285024,-4,-152,8338,31,-46,-1
0.285164,32,-114,8323,82,-77,-64
0.285302,10,-161,8286,-19,-58,43
0.285442,-9,-182,8299,82,-77,-51
0.285581,-42,-130,8329,50,-71,-51
0.285721,4,-123,8323,31,-71,24
0.28586,1,-134,8305,38,-65,-26
0.285999,-10,-172,8289,44,-58,-7
0.286139,6,-149,8305,75,-122,-70
0.286278,41,-122,8287,-6,-33,-1
0.286417,-5,-132,8356,44,-58,18
0.286556,-12,-117,8305,56,-103,-70
0.286696,35,-127,8288,63,-33,-20
0.286835,8,-182,8327,31,-103,-7
0.286974,-1,-148,8333,44,-46,-32
0.287114,14,-138,8319,56,-71,5
0.287253,41,-184,8350,56,-109,-58
0.287393,12,-115,8293,-6,-46,5
0.287532,5,-126,8306,82,-58,-32
0.287671,18,-109,8297,25,-58,-7
0.28781,30,-77,8296,56,-128,-51
0.28795,2,-149,8315,31,-14,-7
0.288089,-18,-67,8284,38,-97,-1
0.288228,-22,-160,8310,63,-77,-45
0.288368,5,-142,8305,50,-52,-7
0.288507,13,-112,8235,31,-77,-45
0.288646,-1,-171,8270,56,-84,-13
0.288786,30,-149,8269,25,-46,-26
0.288925,-23,-156,8292,56,-71,-7
0.289064,10,-143,8264,38,-71,-39
0.289203,43,-103,8322,100,-103,-20
0.289343,10,-133,8364,-25,-26,-13
0.289482,36,-134,8358,38,-71,-32
0.289621,19,-143,8300,82,-77,-20
0.28976,28,-124,8349,25,-52,-26
0.2899,11,-173,8320,50,-71,-20
0.290039,12,-100,8301,38,-77,-7
0.290179,79,-155,8260,56,-84,-58
0.290318,29,-126,8279,75,-77,-13
0.290457,35,-109,8314,-13,-52,12
0.290596,35,-89,8283,75,-109,-58
0.290736,-11,-134,8320,-6,-26,5
0.290875,-9,-130,8347,94,-84,-70
0.291015,5,-109,8298,-13,-52,37
0.291154,-18,-135,8305,88,-84,-32
0.291293,7,-130,8251,56,-65,-77
0.291432,54,-190,8277,12,-46,37
0.291571,9,-167,8353,19,-84,-32
0.291711,-19,-183,8310,94,-103,-26
0.29185,36,-137,8331,12,-52,-1
0.291989,14,-64,8329,56,-33,-26
0.292129,2,-132,8275,56,-116,-51
0.292268,35,-198,8324,31,-58,-1
0.292407,58,-163,8328,38,-71,-32
0.292547,18,-205,8298,50,-52,-7
0.292686,54,-157,8283,50,-71,-20
0.292826,-13,-104,8296,69,-84,-58
0.292965,49,-120,8236,0,-58,-1
0.293104,46,-132,8298,50,-103,-32
0.293247,11,-104,8286,19,-20,-7
0.293382,5,-154,8302,75,-116,-51
0.293523,-16,-163,8342,25,-33,12
0.293661,61,-204,8291,25,-84,-32
0.2938,51,-167,8262,82,-77,-39
0.29394,-17,-123,8312,-13,-46,12
0.29408,-50,-144,8284,44,-71,-13
0.29422,26,-179,8287,63,-90,-51
0.294358,12,-158,8314,31,-46,18
0.294497,-22,-93,8304,63,-90,-39
0.294636,-45,-143,8317,56,-97,-45
0.294776,-34,-78,8311,38,-52,50
0.294915,-16,-100,8306,25,-65,-83
0.295054,9,-135,8362,69,-65,12
0.295194,-13,-129,8336,19,-71,-58
0.295333,10,-132,8345,50,-58,18
0.295472,-6,-126,8373,44,-71,-39
0.295611,1,-87,8360,38,-84,12
0.295751,26,-78,8332,50,-77,-58
0.29589,7,-129,8274,50,-65,-20
0.296029,37,-136,8317,-6,-52,-7
0.296169,27,-91,8330,82,-97,-51
0.296308,-13,-160,8302,12,-39,18
0.296447,-14,-117,8304,82,-109,-51
0.296587,8,-112,8316,-19,-26,12
0.296726,-10,-146,8323,75,-84,-77
0.296865,3,-109,8279,19,-58,50
0.297005,3,-125,8302,69,-77,-102
0.297144,-36,-105,8284,31,-46,31
0.297284,-52,-109,8353,56,-84,-32
0.297423,1,-155,8300,56,-84,-45
0.297562,9,-116,8267,12,-52,-7
0.297701,21,-108,8307,50,-71,-39
0.297841,48,-93,8300,44,-97,-1
0.29798,-19,-144,8288,50,-58,-58
0.298119,-19,-105,8312,38,-77,24
0.298258,36,-136,8338,56,-77,-45
0.298398,-26,-150,8311,38,-52,-26
0.298537,-4,-120,8286,50,-84,5
0.298676,0,-124,8342,63,-65,-51
0.298816,2,-153,8378,0,-71,-7
0.298955,-33,-186,8328,50,-46,-32
0.299094,33,-141,8299,75,-97,-26
0.299233,12,-109,8306,-13,-26,5
0.299373,-36,-154,8325,75,-116,-32
0.299512,-18,-98,8273,31,-58,-58
0.299651,18,-124,8376,31,-71,24
0.299791,12,-147,8309,82,-90,-51
0.29993,45,-114,8287,19,-65,-13
0.300069,1,-66,8338,19,-58,-13
0.300209,38,-150,8329,56,-77,-32
0.300348,23,-168,8337,19,-46,12
0.300487,-14,-84,8323,69,-84,-39
0.300626,46,-119,8289,44,-77,5
0.300766,-10,-160,8338,63,-103,-39
0.300905,-48,-174,8331,-25,-39,-7
0.301044,-16,-164,8293,75,-90,-45
0.301184,-26,-145,8286,82,-46,-7
0.301323,-1,-154,8277,6,-90,-7
0.301463,63,-114,8287,44,-65,-45
0.301602,49,-142,8307,75,-77,-26
0.301741,-26,-156,8333,-6,-84,-26
0.30188,9,-54,8329,56,-52,-1
0.30202,-10,-125,8307,69,-116,-51
0.302159,-7,-168,8244,-19,-33,-7
0.302298,-9,-152,8287,100,-109,-26
0.302438,-23,-135,8287,25,-33,5
0.302577,23,-136,8267,31,-84,-58
0.302717,17,-117,8299,69,-97,-20
0.302857,45,-140,8295,25,-58,-13
0.302995,-6,-142,8259,44,-52,-1
0.303135,29,-139,8242,44,-77,-39
0.303273,11,-90,8254,44,-71,-39
0.303413,38,-91,8272,44,-90,-7
0.303552,33,-113,8307,63,-39,-13
0.303691,-5,-143,8295,6,-90,-51
0.303832,-15,-122,8298,56,-46,24
0.30397,-14,-93,8322,38,-77,-7
0.304109,-2,-159,8336,63,-71,-51
0.304248,32,-130,8362,12,-77,-7
0.304388,4,-126,8325,31,-33,-20
0.304527,-16,-167,8306,75,-122,-39
0.304666,23,-113,8281,50,-46,-32
0.304806,11,-169,8322,0,-39,-1
0.304945,-27,-148,8331,82,-97,-1
0.305084,21,-97,8295,31,-77,-58
0.305224,13,-104,8348,44,-71,5
0.305363,2,-148,8323,44,-52,-45
0.305502,-3,-108,8277,12,-77,-7
0.305642,23,-103,8269,38,-39,-32
0.30578,36,-174,8305,75,-116,-45
0.30592,16,-125,8287,38,-33,5
0.306059,36,-78,8322,44,-122,-64
0.306199,-6,-130,8344,12,-26,24
0.306338,22,-181,8303,31,-84,-39
0.306477,51,-162,8365,69,-90,-51
0.306617,45,-140,8324,56,-65,18
0.306757,-10,-107,8283,12,-58,-26
0.306895,14,-153,8275,63,-71,-32
0.307035,19,-140,8283,69,-77,-58
0.307174,63,-129,8282,12,-65,5
0.307313,-11,-123,8338,69,-84,-7
0.307453,-21,-179,8303,25,-39,-32
0.307592,-2,-156,8278,75,-97,-32
0.307731,22,-123,8288,-13,-58,-7
0.307871,-16,-122,8284,82,-90,-20
0.30801,-18,-175,8302,12,-65,-32
0.308149,26,-115,8313,56,-58,-13
0.308288,30,-102,8329,82,-103,-13
0.308428,23,-120,8314,6,-46,-45
0.308567,-34,-114,8313,38,-71,5
0.308706,-6,-148,8303,63,-71,-20
0.308846,-17,-111,8294,19,-65,-26
0.308985,10,-182,8257,88,-84,-51
0.309124,50,-116,8314,6,-77,5
0.309264,57,-69,8294,75,-77,-20
0.309403,-1,-119,8375,31,-65,-20
0.309542,2,-139,8311,38,-71,-58
0.309682,-4,-155,8293,44,-65,18
0.309821,-52,-113,8278,38,-52,24
0.30996,-38,-93,8323,69,-84,-96
0.310099,-33,-139,8362,19,-39,50
0.310239,42,-123,8298,56,-128,-64
0.310378,23,-110,8293,44,-58,-32
0.310518,26,-121,8286,19,-77,5
0.310657,30,-146,8302,63,-65,-39
0.310796,13,-94,8298,38,-71,-1
0.310935,8,-131,8331,56,-84,-45
0.311075,16,-152,8329,63,-58,-1
0.311214,9,-147,8311,0,-52,-13
0.311353,16,-96,8257,94,-97,-39
0.311492,-19,-136,8269,6,-77,-26
0.311632,3,-156,8290,75,-71,-26
0.311771,-39,-113,8290,25,-65,18
0.31191,-87,-114,8294,38,-52,-58
0.31205,3,-154,8326,63,-71,5
0.312189,-20,-91,8299,50,-77,-26
0.312328,26,-149,8243,50,-71,-26
0.312468,-10,-123,8276,6,-84,-20
0.312607,-18,-128,8348,50,-58,18
0.312746,31,-81,8248,56,-84,-45
0.312886,62,-100,8286,50,-52,-26
0.313025,50,-101,8329,44,-97,-7
0.313164,6,-98,8321,56,-71,-26
0.313307,-9,-146,8344,38,-71,-32
0.313443,-10,-156,8342,38,-46,-20
0.313582,-19,-126,8273,25,-103,12
0.313721,4,-131,8270,75,-65,-77
0.313861,1,-102,8257,25,-77,31
0.314,-7,-120,8301,63,-77,-39
0.314139,-17,-124,8309,25,-77,-32
0.314279,38,-83,8292,63,-90,-26
0.314418,41,-60,8307,25,-58,-20
0.314557,10,-132,8297,25,-33,5
0.314697,13,-98,8310,63,-128,-45
0.314836,16,-161,8275,44,-52,-32
0.314975,59,-112,8266,56,-58,12
0.315115,-16,-145,8328,44,-77,-20
0.315256,42,-117,8333,31,-77,-51
0.315393,33,-119,8303,38,-71,-7
0.315532,32,-133,8312,56,-97,-26
0.315672,36,-99,8336,25,-58,-32
0.315811,3,-137,8331,88,-52,-1
0.31595,-21,-132,8254,25,-109,-39
0.31609,-16,-129,8292,63,-65,-13
0.316229,-31,-158,8292,0,-77,-20
0.316368,27,-162,8312,56,-77,-13
0.316508,-19,-142,8308,38,-33,5
0.316647,-12,-162,8297,50,-103,-58
0.316786,-20,-121,8299,63,-77,-1
0.316926,-27,-126,8305,56,-84,-26
0.317065,1,-167,8319,12,-26,-26
0.317204,12,-131,8285,44,-84,-13
0.317343,33,-73,8262,69,-52,-13
0.317483,-17,-113,8316,25,-109,-51
0.317622,21,-131,8277,50,-52,-13
0.317761,17,-156,8339,56,-52,-7
0.317901,34,-76,8240,50,-97,-32
0.31804,-15,-90,8291,19,-65,-13
0.318179,33,-109,8309,107,-90,-13
0.318319,10,-96,8280,25,-52,-51
0.318458,-53,-96,8312,44,-65,12
0.318597,-24,-127,8288,50,-71,-32
0.318737,-9,-119,8256,31,-97,-26
0.318876,24,-151,8292,31,-90,-7
0.319015,26,-169,8305,88,-71,-70
0.319154,71,-129,8304,-19,-46,24
0.319294,3,-149,8332,75,-97,-39
0.319433,7,-116,8306,25,-65,-7
0.319572,-44,-133,8303,25,-77,-58
0.319712,8,-158,8338,69,-71,12
0.319851,-8,-162,8305,56,-77,-32
0.319991,-13,-131,8314,0,-65,-7
0.32013,57,-164,8319,56,-84,-26
0.320269,13,-113,8323,82,-90,-70
0.320408,2,-106,8327,-13,-39,18
0.320548,22,-146,8308,75,-84,-20
0.320687,-32,-133,8310,50,-52,-26
0.320826,-31,-158,8275,31,-71,-32
0.320966,9,-132,8315,38,-77,-26
0.321105,47,-118,8311,63,-58,-26
0.321244,13,-120,8262,12,-52,-20
0.321383,7,-119,8240,56,-109,5
0.321523,26,-112,8244,56,-65,-32
0.321662,2,-150,8326,19,-77,-20
0.321801,-32,-155,8324,88,-77,-58
0.321941,68,-133,8323,12,-58,24
0.32208,-35,-167,8298,56,-77,-32
0.322219,13,-152,8308,31,-71,-39
0.322359,-10,-100,8322,25,-39,-1
0.322498,27,-154,8307,69,-103,-45
0.322637,44,-150,8299,44,-58,-7
0.322776,-19,-141,8383,50,-90,-1
0.322916,32,-116,8367,31,-20,-39
0.323055,13,-104,8338,50,-109,-39
0.323194,-40,-177,8302,12,-65,-1
0.323334,-23,-155,8280,50,-52,-13
0.323473,-3,-152,8282,50,-77,-58
0.323612,14,-200,8332,63,-84,-7
0.323752,31,-136,8295,12,-26,-1
0.323891,45,-174,8348,69,-122,-45
0.32403,49,-113,8362,12,-46,5
0.32417,-16,-110,8285,56,-58,-32
0.324309,30,-123,8296,94,-97,-51
0.324448,-3,-131,8315,-19,-33,12
0.324587,0,-123,8359,100,-103,-26
0.324727,47,-102,8306,25,-20,-26
0.324866,5,-165,8319,38,-109,-32
0.325005,43,-122,8328,56,-46,-20
0.325145,-4,-142,8319,6,-77,-7
0.325284,32,-157,8371,63,-52,-39
0.325423,-11,-198,8294,56,-84,-13
0.325563,35,-162,8353,50,-77,-13
0.325708,18,-143,8312,25,-52,-20
0.325841,0,-126,8302,50,-71,-20
0.325981,-3,-161,8308,12,-71,-1
0.32612,19,-121,8254,75,-71,-45
0.326259,-28,-66,8311,6,-84,-20
0.326398,-28,-124,8305,56,-46,5
0.326538,-30,-163,8320,31,-58,-20
0.326677,71,-140,8328,44,-58,-39
0.326816,1,-115,8327,44,-84,-20
0.326956,-24,-102,8303,38,-71,-13
0.327095,-4,-85,8327,44,-52,-26
0.327234,-13,-84,8295,19,-97,-7
0.327374,-3,-125,8317,63,-58,-20
0.327513,-10,-119,8307,50,-109,-58
0.327652,-34,-100,8311,25,-65,-7
0.327792,9,-130,8309,6,-7,12
0.327931,-3,-162,8312,119,-122,-45
0.32807,2,-120,8342,-6,-71,-20
0.328209,17,-97,8329,63,-58,-13
0.328351,-6,-124,8265,6,-84,-1
0.328488,43,-97,8337,75,-58,-51
0.328627,18,-134,8314,38,-65,-39
0.328768,23,-145,8329,19,-39,-1
0.328906,21,-182,8314,63,-77,-39
0.329046,62,-163,8304,0,-65,-1
0.329184,47,-119,8320,75,-71,-58
0.329325,25,-144,8317,19,-77,5
0.329463,-19,-135,8336,63,-71,-39
0.329603,40,-146,8290,63,-52,-26
0.329742,43,-139,8316,6,-71,-1
0.329882,10,-104,8356,75,-52,-45
0.33002,17,-106,8334,31,-103,-13
0.33016,16,-138,8307,38,-65,-26
0.330299,12,-135,8288,63,-26,-32
0.330438,16,-181,8291,6,-103,-20
0.330578,-9,-229,8276,63,-52,12
0.330718,15,-137,8311,44,-84,-39
0.330856,52,-100,8321,44,-52,-45
0.330996,36,-118,8321,38,-90,-1
0.331135,13,-161,8337,50,-65,-7
0.331274,9,-133,8323,100,-97,-51
0.331414,11,-168,8303,-25,-65,-13
0.331555,8,-152,8335,63,-77,24
0.331692,16,-122,8321,63,-58,-58
0.331832,0,-135,8305,6,-52,-7
0.331971,36,-135,8282,69,-58,-20
0.332112,-8,-88,8262,12,-97,-45
0.332256,20,-160,8268,82,-58,-1
0.332389,-28,-184,8261,38,-71,-26
0.332528,-2,-120,8275,38,-77,-39
0.332668,-35,-121,8305,38,-71,12
0.332807,39,-122,8320,63,-58,-45
0.332946,28,-133,8323,25,-26,-13
0.333085,25,-134,8296,38,-109,-32
0.333225,4,-137,8316,63,-77,-7
0.333365,12,-120,8287,63,-58,-39
0.333504,-9,-151,8287,50,-77,-13
0.333642,18,-88,8284,-6,-39,5
0.333782,47,-130,8240,100,-128,-70
0.333921,8,-128,8268,56,-26,18
0.33406,-25,-107,8301,19,-71,-45
0.3342,5,-129,8317,63,-84,-26
0.334339,1,-79,8336,50,-58,-26
0.334478,-12,-73,8293,19,-90,-13
0.334617,28,-106,8292,69,-77,-20
0.334757,-8,-107,8323,25,-39,-39
0.334896,12,-122,8326,31,-65,12
0.335035,46,-122,8351,69,-90,-64
0.335175,-26,-116,8326,31,-39,37
0.335314,21,-146,8329,50,-90,-64
0.335453,8,-130,8346,12,-97,-13
0.335593,28,-102,8293,50,-58,-20
0.335732,27,-133,8287,12,-65,-20
0.335871,5,-89,8247,88,-65,-7
0.336011,62,-120,8302,44,-77,-20
0.33615,20,-158,8304,38,-103,-32
0.336289,9,-96,8311,25,-52,-13
0.336429,19,-94,8262,38,-90,-32
0.336568,-8,-179,8273,12,-39,-1
0.336709,-30,-151,8300,100,-116,-51
0.336847,-11,-81,8278,12,-52,-1
0.336987,32,-155,8278,69,-97,-39
0.337125,28,-158,8322,19,-58,12
0.337265,-28,-155,8330,63,-71,-32
0.337404,38,-181,8327,-6,-33,-20
0.337543,-39,-118,8327,75,-109,-13
0.337682,18,-149,8278,31,-77,-32
0.337823,32,-86,8296,56,-39,-20
0.337961,24,-107,8280,-6,-65,-1
0.338108,18,-176,8302,56,-77,-45
0.338241,29,-162,8308,38,-65,5
0.338379,16,-135,8305,63,-52,-26
0.338518,7,-135,8322,44,-84,-45
0.338659,25,-97,8277,6,-39,-13
0.338797,9,-116,8316,44,-71,-32
0.338936,2,-149,8300,44,-84,-26
0.339077,0,-134,8303,0,-58,-7
0.339215,14,-144,8309,82,-65,-32
0.339354,25,-125,8235,25,-46,-26
0.339495,-2,-170,8328,38,-71,-13
0.339633,57,-118,8279,50,-52,5
0.339773,13,-123,8284,56,-77,-32
0.339911,62,-161,8332,0,-58,-39
0.340051,10,-100,8303,75,-65,-20
0.34019,-14,-88,8314,12,-84,-20
0.340329,-7,-135,8364,63,-58,-7
0.34047,59,-122,8295,38,-90,-13
0.340608,29,-122,8279,38,-77,-51
0.340749,-12,-139,8364,25,-71,31
0.340886,23,-146,8346,75,-52,-83
0.341026,32,-144,8293,-19,-20,56
0.341165,28,-162,8259,113,-128,-64
0.341311,-31,-140,8328,44,-33,-32
0.341444,-19,-142,8322,-6,-84,31
0.341583,-4,-104,8373,75,-65,-77
0.341723,-5,-152,8308,12,-71,43
0.341862,38,-136,8311,50,-52,-64
0.342001,19,-173,8275,50,-97,-1
0.34214,9,-106,8300,50,-46,-45
0.342279,16,-127,8284,12,-52,31
0.342419,5,-135,8306,56,-103,-70
0.342558,-10,-143,8300,50,-103,-13
0.3427,28,-140,8262,44,-39,5
0.342838,-25,-78,8308,44,-52,-13
0.342976,-32,-109,8326,56,-84,-58
0.343116,24,-134,8297,44,-65,-7
0.343256,1,-140,8317,19,-71,-32
0.343394,24,-111,8400,56,-33,18
0.343533,-9,-79,8357,44,-109,-51
0.343673,-44,-133,8277,44,-46,-32
0.343812,7,-194,8309,44,-71,37
0.343952,48,-201,8334,50,-52,-58
0.344091,36,-152,8316,38,-84,-26
0.34423,-16,-89,8325,0,-39,5
0.344369,-19,-86,8317,94,-109,-45
0.344509,4,-150,8246,12,-77,5
0.344648,26,-136,8294,38,-46,-45
0.344787,6,-146,8273,56,-84,-26
0.344926,-30,-135,8308,63,-65,-13
0.345066,9,-109,8296,19,-103,-45
0.345205,7,-129,8333,82,-65,-13
0.345345,15,-121,8288,19,-71,-13
0.345484,49,-83,8295,69,-46,-45
0.345623,32,-96,8309,50,-109,-7
0.345762,-15,-144,8286,19,-58,-26
0.345902,-49,-169,8288,44,-77,-26
0.346041,32,-161,8312,107,-84,-32
0.34618,5,-165,8321,-6,-58,-1
0.34632,-78,-155,8368,75,-58,-26
0.346459,10,-126,8275,19,-77,-20
0.346598,56,-131,8286,31,-65,-7
0.346738,6,-156,8325,56,-77,-39
0.346877,-40,-141,8321,44,-71,-39
0.347016,1,-169,8275,69,-97,5
0.347156,-5,-149,8311,0,-33,-32
0.347295,50,-108,8321,75,-65,-13
0.347434,35,-114,8356,6,-97,-20
0.347574,49,-83,8319,75,-90,-32
0.347713,13,-129,8320,25,-33,5
0.347852,47,-136,8276,94,-103,-39
0.347991,38,-108,8286,-19,-46,-39
0.348131,-7,-85,8278,82,-71,-1
0.34827,-30,-121,8305,38,-90,12
0.348409,18,-130,8276,63,-46,-77
0.348549,0,-77,8320,38,-71,24
0.348688,25,-126,8268,38,-90,-51
0.348827,2,-154,8290,63,-84,-13
0.348967,31,-84,8306,56,-58,-13
0.349106,7,-120,8326,6,-52,-26
0.349245,30,-108,8372,56,-122,-26
0.349384,21,-134,8323,50,-7,-1
0.349524,43,-114,8285,19,-116,-26
0.349663,61,-92,8310,100,-58,-45
0.349803,-29,-129,8333,-19,-46,5
0.349942,52,-130,8324,113,-122,-51
0.350081,47,-87,8302,12,-33,-7
0.35022,78,-133,8336,50,-97,-39
0.35036,33,-105,8327,31,-58,-1
0.350499,-5,-123,8358,63,-77,-39
0.350638,24,-107,8292,31,-71,-1
0.350778,31,-179,8335,56,-58,-26
0.350917,38,-127,8323,56,-84,-20
0.351056,-20,-133,8330,19,-58,-26
0.351195,-19,-116,8344,50,-77,-13
0.351335,70,-142,8308,0,-52,5
0.351474,66,-103,8285,69,-90,-77
0.351613,-3,-140,8261,25,-26,62
0.351752,-24,-110,8337,63,-103,-96
0.351892,34,-176,8304,82,-65,-13
0.352031,22,-189,8312,-25,-84,-13
0.35217,56,-113,8303,44,-58,-26
0.35231,6,-154,8323,75,-65,-32
0.35245,55,-133,8319,12,-84,-20
0.352589,0,-119,8337,56,-97,-7
0.352728,7,-156,8282,38,-71,-13
0.352867,25,-149,8268,44,-46,-39
0.353007,-1,-159,8282,31,-65,-7
0.353147,-2,-147,8301,63,-109,-58
0.353285,1,-96,8311,31,-39,-7
0.353424,52,-88,8299,50,-90,-13
0.353564,43,-53,8284,-13,-46,5
0.353703,79,-129,8296,75,-84,-32
0.353843,25,-116,8338,56,-84,-20
0.353981,-18,-88,8330,38,-97,-39
0.354121,7,-179,8323,19,-14,-20
0.354261,17,-149,8328,63,-109,-7
0.354399,-15,-119,8355,38,-65,-26
0.354541,-6,-135,8339,44,-52,-32
0.354678,-33,-80,8378,19,-58,-1
0.354818,-8,-114,8279,69,-58,-26
0.354957,2,-135,8268,25,-65,-26
0.355096,-32,-116,8299,75,-90,-26
0.355235,-57,-144,8336,19,-46,-32
0.355375,-13,-169,8305,63,-97,-20
0.355514,37,-129,8319,25,-52,-13
0.355653,-5,-130,8328,56,-71,-45
0.355792,-19,-121,8315,19,-103,-7
0.355932,-22,-109,8374,75,-46,-26
0.356071,35,-115,8305,25,-52,18
0.356211,56,-135,8378,63,-148,-70
0.35635,9,-165,8341,44,-7,24
0.35649,-22,-123,8321,6,-97,-26
0.356628,-50,-147,8322,82,-77,-39
0.356768,23,-137,8346,12,-58,12
0.356907,1,-118,8255,50,-77,-51
0.357047,28,-89,8333,44,-52,-1
0.357186,14,-112,8333,50,-116,-1
0.357325,24,-104,8311,56,-71,-83
0.357464,-27,-174,8356,31,-39,43
0.357604,5,-176,8315,12,-84,-64
0.357743,8,-151,8248,63,-71,12
0.357882,-40,-120,8283,69,-58,-26
0.358022,-53,-112,8300,50,-97,-20
0.358161,-30,-169,8252,12,-65,-51
0.3583,-4,-96,8332,69,-84,-7
0.35844,28,-146,8316,12,-52,-32
0.358579,-29,-175,8311,88,-52,-26
0.358718,-35,-124,8295,-6,-103,-7
0.358857,-14,-185,8280,56,-52,-45
0.358997,5,-155,8314,38,-84,-7
0.359136,-43,-158,8286,38,-58,-13
0.359275,35,-185,8302,82,-58,-51
0.359415,25,-129,8283,-6,-90,12
0.359554,29,-140,8352,82,-84,-45
0.359693,3,-102,8359,63,-71,-39
0.359832,13,-134,8336,-31,-26,18
0.359972,-41,-158,8338,75,-84,-45
0.360111,-62,-129,8349,44,-84,-20
0.36025,39,-136,8367,25,-52,-1
0.36039,-29,-123,8374,56,-84,-58
0.360529,5,-141,8288,12,-20,12
0.360671,20,-118,8288,94,-122,-26
0.360808,-3,-138,8296,-6,-65,-39
0.360948,26,-73,8256,50,-103,-13
0.361086,11,-145,8336,31,-52,-45
0.361226,-34,-125,8356,25,-33,12
0.361365,-10,-109,8290,50,-77,-20
0.361504,24,-144,8269,56,-109,-58
0.361643,15,-101,8265,31,-39,12
0.361783,9,-111,8286,6,-58,-26
0.361922,45,-164,8270,63,-90,-58
0.362061,31,-153,8325,31,-52,31
0.3622,11,-143,8347,38,-84,-32
0.36234,27,-99,8322,69,-71,-26
0.362479,36,-107,8312,44,-58,-39
0.362619,28,-120,8302,25,-65,-13
0.362758,37,-105,8299,50,-65,-13
0.362897,-37,-178,8308,63,-97,-32
0.363038,1,-184,8277,-25,-26,-1
0.363177,2,-139,8339,94,-109,-7
0.363318,-29,-101,8302,50,-58,-58
0.363458,43,-110,8301,0,-84,-1
0.363594,-16,-155,8322,75,-52,-13
0.363733,-12,-160,8298,19,-65,-20
0.363872,61,-152,8234,25,-71,-39
0.364014,-108,-142,8321,82,-77,-20
0.364151,-52,-153,8376,25,-58,-26
0.36429,-8,-94,8262,19,-77,-7
0.36443,45,-136,8302,31,-65,-26
0.364569,-1,-140,8329,44,-65,-1
0.364708,-11,-122,8293,50,-65,-26
0.364848,-4,-167,8317,6,-84,-51
0.364988,11,-158,8306,94,-65,5
0.365126,11,-188,8304,31,-52,-13
0.365265,23,-153,8318,0,-65,-26
0.365405,6,-90,8283,75,-84,-32
0.365544,-48,-108,8304,31,-58,-1
0.365683,-11,-149,8295,12,-46,-13
0.365824,-6,-156,8263,56,-97,-20
0.365962,-9,-137,8308,19,-46,-20
0.366102,12,-87,8273,75,-71,-20
0.366241,34,-116,8283,19,-65,-51
0.36638,2,-141,8272,56,-77,12
0.366519,10,-154,8257,6,-39,-26
0.36666,-57,-170,8272,69,-90,-20
0.366798,0,-134,8331,56,-77,-45
0.366937,47,-125,8295,12,-52,-13
0.367077,-27,-197,8312,69,-103,-26
0.367216,6,-212,8342,44,-52,-7
0.367355,30,-121,8309,31,-58,-20
0.367495,48,-126,8263,25,-90,-13
0.367634,38,-73,8351,88,-109,-58
0.367773,-3,-127,8314,0,-58,12
0.367912,28,-110,8307,50,-71,-39
0.368052,42,-166,8271,88,-65,-26
0.368191,51,-92,8308,-6,-65,-7
0.36833,22,-128,8273,50,-58,-20
0.36847,-1,-118,8317,50,-109,-26
0.368609,-25,-96,8299,50,-58,-7
0.368748,27,-113,8269,0,-46,-39
0.368888,46,-131,8239,75,-71,-13
0.369027,10,-113,8304,38,-84,-20
0.369166,31,-136,8358,69,-52,-26
0.369307,0,-171,8279,6,-90,12
0.369445,44,-140,8264,56,-65,-32
0.369584,22,-124,8268,38,-46,-13
0.369724,44,-121,8322,69,-128,-64
0.369863,39,-160,8337,19,-33,31
0.370002,-8,-174,8335,25,-39,-26
0.370141,15,-199,8314,82,-109,-39
0.370281,-2,-167,8302,25,-65,-20
0.37042,34,-74,8252,44,-20,12
0.370559,50,-120,8302,75,-116,-51
0.370698,53,-101,8298,38,-77,-1
0.370839,-49,-133,8255,25,-26,-26
0.370977,34,-135,8310,25,-122,-13
0.371117,57,-118,8271,75,-65,-58
0.371256,-23,-140,8301,19,-84,-7
0.371395,-26,-157,8310,44,-46,-13
0.371534,-4,-177,8332,50,-84,-26
0.371674,-10,-149,8282,50,-71,-1
0.371813,44,-131,8276,38,-71,-39
0.371952,8,-131,8328,19,-39,-7
0.372092,10,-160,8331,82,-109,-51
0.372231,-28,-172,8324,-13,-20,5
0.37237,-17,-123,8300,94,-154,-32
0.37251,-1,-107,8310,31,-14,-32
0.372649,-40,-149,8354,50,-103,5
0.372788,10,-119,8308,6,-71,-51
0.37293,-55,-155,8330,63,-58,18
0.373068,-4,-120,8269,31,-77,-39
0.373207,7,-115,8319,63,-52,-32
0.373345,-37,-131,8316,56,-84,-1
0.373485,27,-122,8312,19,-46,-39
0.373624,17,-129,8338,12,-71,-26
0.373765,-28,-91,8354,82,-52,24
0.373903,14,-101,8309,-31,-58,-51
0.374042,36,-126,8326,107,-71,-26
0.374181,-8,-108,8300,31,-109,-7
0.374323,-18,-121,8295,44,-14,-32
0.37446,11,-178,8301,69,-97,-20
0.374599,-30,-173,8318,12,-46,12
0.374738,-3,-151,8294,88,-109,-58
0.374878,21,-139,8293,-6,-26,-39
0.375017,27,-180,8256,69,-84,12
0.375156,18,-122,8312,19,-33,-45
0.375296,-20,-152,8295,50,-109,-1
0.375435,19,-92,8261,63,-71,-7
0.375574,46,-48,8311,44,-58,-83
0.375713,12,-94,8272,19,-90,37
0.375855,25,-128,8252,50,-58,-39
0.375992,2,-131,8306,25,-84,-20
0.376132,-42,-92,8306,31,-77,-20
0.376271,7,-65,8298,88,-77,-39
0.37641,25,-128,8260,44,-90,-26
0.37655,-4,-175,8292,12,-46,-13
0.376689,27,-188,8269,44,-77,-13
0.37683,29,-110,8285,44,-77,-32
0.376967,-6,-144,8326,25,-33,-13
0.377108,-12,-136,8298,38,-84,-7
0.377246,-12,-160,8266,75,-97,-39
0.377385,31,-145,8242,69,-58,-20
0.377525,-30,-142,8337,6,-77,-20
0.377664,-28,-119,8348,44,-33,-13
0.377803,-33,-98,8281,94,-109,-58
0.377943,1,-96,8312,-44,-7,18
0.378082,18,-146,8296,94,-103,-51
0.378221,20,-95,8296,50,-77,-13
0.378361,32,-103,8289,31,-46,-51
0.3785,70,-185,8318,31,-52,18
0.378639,33,-113,8312,12,-52,-32
0.378778,-13,-105,8270,63,-84,-32
0.378918,43,-110,8287,75,-77,-32
0.379057,-23,-161,8300,-19,-58,-20
0.379196,3,-142,8350,82,-77,-1
0.379336,-4,-193,8337,31,-65,-39
0.379475,19,-206,8314,75,-65,-20
0.379614,40,-131,8232,12,-77,5
0.379753,24,-171,8232,38,-77,-51
0.379893,-34,-134,8323,31,-52,-1
0.380032,22,-151,8352,63,-122,-13
0.380172,14,-142,8341,56,-33,-39
0.380311,35,-130,8342,31,-128,-20
0.38045,53,-118,8313,44,-20,-13
0.38059,42,-119,8333,63,-90,-13
0.380729,72,-116,8360,25,-65,-39
0.380869,27,-139,8296,44,-65,-1
0.381007,17,-98,8314,82,-97,-70
0.381147,-53,-161,8281,-25,-46,31
0.381286,-12,-180,8285,82,-116,-70
0.381425,37,-147,8333,25,-46,12
0.381565,-18,-140,8288,25,-58,-32
0.381704,26,-130,8288,63,-122,-58
0.381843,18,-155,8290,56,12,37
0.381982,14,-139,8340,44,-135,-64
0.382122,-3,-128,8304,31,-39,-13
0.382261,-18,-110,8320,12,-77,5
0.382402,-7,-157,8352,100,-97,-45
0.382539,24,-177,8285,69,-39,-13
0.382679,-12,-174,8286,12,-84,-13
0.382819,35,-117,8284,56,-84,-64
0.382958,-10,-164,8297,25,-71,12
0.383099,-2,-166,8305,63,-46,-7
0.383237,43,-123,8318,50,-71,-26
0.383376,2,-109,8293,6,-90,-51
0.383515,14,-157,8264,69,-58,-7
0.383654,8,-110,8336,25,-71,-1
0.383793,15,-81,8286,56,-65,-20
0.383933,12,-157,8255,44,-90,-20
0.384074,-48,-109,8282,38,-39,-20
0.384211,1,-103,8291,38,-71,-20
0.384351,24,-114,8291,44,-90,-7
0.38449,22,-125,8252,38,-46,-51
0.384629,31,-101,8283,38,-71,5
0.384769,-30,-119,8335,56,-58,-20
0.384908,-9,-136,8283,-13,-58,-13
0.385047,48,-105,8253,50,-77,-20
0.385187,-7,-99,8308,38,-84,-20
0.385326,0,-100,8316,75,-65,-39
0.385465,-28,-169,8271,6,-52,-7
0.385605,-37,-94,8285,69,-90,-26
0.385744,33,-97,8333,25,-52,-7
0.385883,12,-92,8314,25,-77,-20
0.386022,22,-79,8319,63,-65,-32
0.386162,18,-122,8336,19,-84,-13
0.386305,8,-182,8326,56,-58,-13
0.38644,19,-148,8294,31,-77,-39
0.38658,10,-58,8288,75,-90,-32
0.386719,9,-127,8327,38,-65,-1
0.386858,26,-190,8379,-13,-84,-20
0.386998,-50,-128,8242,107,-71,-51
0.387137,19,-41,8200,-6,-84,5
0.387276,10,-106,8289,100,-65,-20
0.387415,13,-103,8333,31,-65,-39
0.387555,21,-144,8297,19,-46,-26
0.387694,29,-160,8333,63,-97,-1
0.387834,6,-110,8357,12,-46,-7
0.387973,5,-144,8327,94,-84,-51
0.388112,2,-131,8272,0,-39,24
0.388251,20,-88,8306,82,-97,-58
0.388391,-33,-180,8343,38,-90,-39
0.38853,-37,-146,8302,38,-58,12
0.388669,9,-101,8317,-6,-46,-20
0.388809,31,-110,8287,113,-103,-39
0.388948,44,-132,8284,6,-65,-26
0.389087,10,-136,8280,63,-58,-7
0.389227,18,-138,8280,31,-84,-39
0.389366,19,-144,8274,44,-52,-7
0.389505,40,-156,8294,44,-84,-39
0.389645,16,-119,8304,38,-65,-26
0.389784,-5,-122,8289,31,-97,5
0.389923,30,-155,8287,50,-20,-20
0.390062,-1,-196,8324,69,-97,-51
0.390202,-6,-135,8313,31,-65,-7
0.390341,-11,-164,8307,63,-84,-32
0.39048,-37,-162,8264,44,-71,-39
0.39062,1,-100,8257,12,-58,24
0.39076,6,-131,8307,88,-77,-64
0.390898,32,-150,8281,6,-58,5
0.391039,7,-166,8313,63,-77,-32
0.391177,-15,-140,8315,6,-65,-1
0.391316,-7,-141,8359,88,-65,-39
0.391456,11,-150,8331,31,-103,-26
0.391595,27,-104,8302,63,-33,-13
0.391734,-9,-95,8329,12,-103,-32
0.391873,-1,-113,8279,63,-71,-7
0.392012,-16,-142,8298,44,-65,-26
0.392152,14,-144,8286,63,-97,-45
0.392291,7,-132,8260,19,-46,31
0.392431,61,-124,8264,38,-65,-45
0.392571,10,-176,8277,50,-58,-26
0.392709,5,-114,8367,63,-97,-7
0.392849,-2,-135,8350,-6,-39,-7
0.392988,-12,-103,8302,100,-116,-51
0.393128,-4,-104,8267,0,-39,-1
0.393268,60,-119,8276,75,-84,-20
0.393406,37,-87,8285,12,-65,-20
0.393545,-19,-147,8320,44,-46,-20
0.393684,30,-125,8280,88,-116,-51
0.393825,-19,-138,8282,-50,6,31
0.393963,19,-122,8320,113,-160,-77
0.394102,7,-115,8319,-13,-7,12
0.394242,21,-81,8289,56,-77,-26
0.394381,7,-121,8310,12,-39,-45
0.39452,-33,-146,8314,63,-84,-1
0.394659,-56,-147,8311,50,-33,-32
0.394801,-31,-164,8330,25,-128,-13
0.394938,-4,-146,8326,69,-52,-39
0.395077,-18,-118,8293,6,-26,31
0.395217,-34,-150,8318,63,-135,-64
0.395356,8,-144,8247,31,-65,-51
0.395495,22,-110,8300,50,-52,56
0.395635,26,-87,8366,12,-65,-89
0.395774,20,-135,8350,75,-84,12
0.395913,72,-102,8311,12,-26,-13
0.396053,56,-132,8318,75,-141,-20
0.396192,-8,-155,8273,44,-26,-13
0.396331,23,-146,8288,25,-71,-26
0.39647,-7,-138,8284,38,-90,-20
0.39661,56,-140,8316,44,-26,-26
0.396749,59,-93,8310,19,-84,24
0.396888,31,-159,8313,56,-103,-58
0.397028,2,-131,8330,38,-33,-7
0.397167,46,-104,8304,69,-97,-32
0.397307,-42,-154,8304,6,-46,5
0.397446,-19,-128,8281,75,-116,-39
0.397585,-46,-197,8289,25,-26,-1
0.397724,18,-181,8334,31,-90,-45
0.397863,23,-122,8322,56,-90,-13
0.398003,33,-109,8282,56,-58,-20
0.398142,-17,-84,8329,12,-52,-39
0.398282,17,-160,8286,50,-90,-26
0.398421,-12,-116,8274,38,-58,-20
0.39856,-13,-147,8316,94,-71,-32
0.398699,-12,-152,8293,-19,-77,5
0.398839,15,-167,8271,44,-39,-39
0.398978,0,-158,8270,56,-116,-1
0.399118,36,-137,8269,12,-46,-39
0.399257,16,-162,8299,38,-77,5
0.399396,1,-115,8303,63,-77,-51
0.399535,58,-116,8302,63,-71,-32
0.399675,10,-128,8276,19,-77,18
0.399814,-15,-180,8296,25,-58,-45
0.399953,67,-159,8308,82,-52,-39
0.400093,32,-142,8295,25,-97,12
0.400232,8,-136,8351,50,-65,-39
0.400371,20,-180,8328,56,-71,-20
0.400511,8,-155,8303,19,-97,-26
0.40065,-16,-127,8287,75,-84,-51
0.40079,19,-128,8318,19,-46,18
0.400928,35,-114,8314,50,-65,-1
0.401068,5,-120,8315,12,-77,-51
0.401207,29,-105,8329,88,-90,-39
0.401346,34,-121,8320,63,-58,-13
0.401485,32,-123,8302,19,-58,18
0.401625,43,-155,8296,56,-97,-83
0.401764,93,-88,8247,38,-26,50
0.401903,2,-119,8289,50,-122,-64
0.402043,-44,-172,8279,56,-52,-32
0.402182,12,-166,8292,50,-90,-20
0.402321,9,-111,8273,56,-71,-1
0.402461,-21,-134,8304,-6,-65,-20
0.4026,1,-156,8301,82,-52,-32
0.402741,19,-89,8250,6,-77,-32
0.40288,44,-139,8249,56,-65,5
0.403019,-28,-157,8298,56,-58,-26
0.403159,11,-160,8345,25,-71,-20
0.403297,41,-182,8298,82,-65,-45
0.403436,-7,-163,8284,25,-65,-7
0.403575,2,-128,8302,6,-46,-1
0.403714,-20,-145,8234,82,-122,-45
0.403854,25,-101,8254,38,-39,-13
0.403993,-1,-142,8294,38,-77,-32
0.404132,-12,-156,8290,75,-90,-39
0.404272,26,-122,8308,6,-65,24
0.404411,10,-155,8288,82,-71,-51
0.40455,42,-174,8314,-25,-90,-26
0.40469,4,-127,8273,82,-33,5
0.404829,29,-136,8236,44,-109,-39
0.404968,26,-181,8292,63,-58,-7
0.405108,-23,-163,8331,0,-84,-32
0.405247,-18,-153,8310,75,-65,-1
0.405386,29,-182,8323,31,-77,-51
0.405525,-23,-149,8278,56,-71,-7
0.405665,-11,-95,8300,44,-58,5
0.405804,68,-108,8286,38,-90,-64
0.405943,80,-127,8275,31,-52,12
0.406083,3,-126,8228,44,-103,-58
0.406222,26,-110,8304,82,-52,5
0.406361,-4,-149,8340,-38,-84,-20
0.406501,-14,-124,8298,94,-71,-26
0.40664,-44,-89,8329,50,-90,-58
0.406779,35,-149,8276,50,-58,18
0.406919,24,-110,8297,6,-52,-20
0.407058,-16,-195,8272,82,-77,-32
0.407197,7,-148,8298,31,-77,-32
0.407336,23,-135,8297,63,-46,-20
0.407476,28,-128,8328,0,-109,12
0.407615,21,-179,8299,94,-90,-64
0.407754,-13,-128,8272,12,-26,12
0.407894,-5,-156,8291,25,-77,-32
0.408033,-9,-180,8345,75,-90,-26
0.408172,10,-51,8280,6,-46,-1
0.408312,28,-106,8294,82,-109,-26
0.408451,38,-175,8286,56,-58,-20
0.40859,19,-121,8294,-6,-58,-13
0.40873,27,-72,8304,69,-84,-32
0.408869,34,-101,8384,44,-77,-1
0.409008,-31,-186,8329,44,-71,-32
0.409147,2,-116,8339,63,-46,-13
0.409287,17,-168,8320,25,-97,-13
0.409426,10,-160,8317,63,-46,-39
0.409565,33,-156,8285,6,-71,5
0.409705,29,-106,8279,88,-77,-64
0.409844,5,-133,8295,38,-39,24
0.409983,33,-153,8272,25,-109,-26
0.410123,-23,-103,8285,88,-65,-20
0.410262,9,-144,8250,0,-39,-7
0.410401,4,-168,8340,88,-103,-39
0.410541,58,-145,8332,-13,-20,5
0.41068,4,-100,8281,113,-103,-58
0.410819,-72,-85,8281,31,-71,-20
0.410958,-46,-141,8294,6,-46,-51
0.411098,-30,-99,8316,88,-65,-1
0.411237,23,-95,8242,0,-77,-13
0.411376,58,-166,8257,63,-58,-13
0.411516,4,-179,8238,50,-71,-39
0.411655,16,-107,8278,31,-71,-20
0.411794,-30,-135,8300,44,-77,-39
0.411934,-12,-135,8305,19,-65,12
0.412073,50,-183,8338,63,-65,-58
0.412212,32,-147,8303,19,-58,-1
0.412352,69,-179,8320,69,-77,-51
0.412491,24,-152,8343,31,-65,18
0.41263,-6,-144,8374,44,-77,-45
0.412769,33,-133,8276,44,-58,-26
0.412909,2,-74,8280,56,-58,-20
0.413048,20,-174,8286,25,-103,12
0.413187,28,-93,8301,63,-77,-51
0.413327,-27,-150,8322,12,-58,-7
0.413466,30,-128,8330,63,-46,-26
0.413605,21,-130,8287,50,-77,-1
0.413745,-30,-121,8305,69,-122,-70
0.413884,-33,-118,8359,19,-33,-1
0.414023,10,-95,8273,50,-58,-7
0.414163,-23,-157,8285,25,-97,-20
0.414302,23,-123,8353,50,-58,-45
0.414441,9,-142,8335,56,-97,-32
0.41458,-35,-125,8289,63,-39,-7
0.41472,-49,-116,8320,-25,-52,50
0.414859,9,-130,8310,113,-122,-134
0.414998,3,-128,8291,19,-39,43
0.415138,5,-121,8323,31,-84,-1
0.415277,45,-133,8324,50,-97,-58
0.415416,37,-139,8295,50,-14,12
0.415556,-21,-140,8333,44,-135,-64
0.415695,34,-138,8320,56,-39,-7
0.415834,27,-144,8289,12,-65,5
0.415974,-11,-124,8365,82,-52,-26
0.416113,6,-135,8351,19,-84,-20
0.416252,65,-141,8325,69,-65,-45
0.416391,62,-67,8261,38,-103,12
0.416531,-19,-118,8312,12,-58,-26
0.41667,21,-120,8340,69,-52,-32
0.416809,-11,-122,8308,63,-71,-45
0.416949,-10,-159,8334,31,-77,-1
0.417088,46,-132,8344,75,-71,-13
0.417227,-14,-125,8373,6,-71,-58
0.417367,-3,-135,8274,31,-77,37
0.417506,7,-121,8279,94,-71,-58
0.417645,-10,-93,8276,12,-103,12
0.417785,-22,-177,8299,12,-39,-32
0.417924,-22,-142,8269,94,-90,-58
0.418063,3,-108,8288,19,-46,18
0.418202,-2,-142,8260,75,-148,-39
0.418342,53,-104,8280,12,-26,-32
0.418481,-17,-133,8327,50,-97,18
0.41862,48,-116,8272,25,-52,-45
0.41876,50,-131,8272,50,-52,-26
0.418899,-20,-130,8364,38,-90,-1
0.419038,-4,-148,8291,38,-84,-1
0.419178,5,-109,8301,63,-46,-70
0.419317,10,-123,8245,44,-84,24
0.419456,49,-176,8312,38,-58,-45
0.419596,-33,-152,8286,56,-71,-20
0.419735,-15,-120,8290,31,-97,-32
0.419874,-41,-133,8352,44,-14,-1
0.420013,16,-108,8298,82,-128,-39
0.420153,108,-59,8260,19,-77,-13
0.420292,-33,-182,8326,56,-90,-13
0.420431,56,-167,8262,44,-26,-7
0.420571,-3,-180,8296,6,-90,-39
0.42071,21,-120,8304,63,-65,-26
0.420849,3,-137,8272,56,-84,18
0.420989,49,-168,8308,25,-84,-39
0.421128,-4,-128,8306,56,-46,-13
0.421267,-26,-123,8318,50,-97,-20
0.421407,-46,-162,8338,31,-46,-32
0.421546,-10,-177,8320,56,-90,-13
0.421685,20,-201,8305,63,-39,-26
0.421824,14,-76,8334,44,-90,-7
0.421964,46,-99,8288,38,-84,-51
0.422103,24,-134,8295,31,-39,18
0.422242,43,-142,8319,75,-122,-39
0.422382,48,-157,8310,0,-33,-13
0.422521,33,-164,8364,75,-103,-20
0.42266,53,-138,8274,44,-52,5
0.4228,-11,-131,8316,25,-58,-26
0.422939,40,-157,8279,69,-77,-20
0.423078,2,-171,8335,25,-46,-7
0.423218,-2,-137,8325,56,-97,-39
0.423357,15,-86,8307,63,-58,-13
0.423496,-38,-111,8335,6,-77,-32
0.423635,11,-158,8331,75,-90,-13
0.423775,-21,-154,8282,12,-33,-7
0.423914,-18,-122,8283,100,-122,-39
0.424053,49,-145,8325,-19,-20,31
0.424193,36,-105,8349,88,-97,-83
0.424332,13,-148,8315,6,-46,24
0.424471,-32,-111,8311,82,-97,-64
0.424612,-24,-134,8319,-19,-39,12
0.42475,-48,-129,8303,100,-116,-7
0.424889,-14,-120,8342,19,-71,-77
0.42503,3,-142,8308,56,-52,12
0.425168,34,-170,8277,0,-26,-26
0.425307,28,-156,8252,75,-103,-7
0.425446,5,-139,8288,19,-39,-39
0.425586,18,-165,8297,19,-84,5
0.425725,-43,-157,8311,69,-90,-58
0.425864,46,-140,8290,25,-58,-7
0.426004,38,-142,8308,56,-71,-20
0.426143,-22,-115,8283,6,-65,-20
0.426282,22,-167,8278,75,-71,-13
0.426422,42,-154,8352,56,-71,-51
0.426561,72,-125,8300,6,-39,56
0.4267,-3,-127,8317,63,-116,-96
0.42684,-25,-170,8329,63,-33,-1
0.426979,-3,-136,8363,25,-109,-7
0.427118,52,-123,8371,38,-52,-13
0.427257,9,-158,8358,44,-71,-20
0.427397,-18,-47,8293,38,-90,-26
0.427536,-4,-115,8320,25,-33,-26
0.427675,-13,-112,8396,56,-77,-51
0.427815,-43,-119,8358,56,-109,5
0.427956,37,-100,8331,31,-39,-20
0.428093,31,-188,8284,56,-109,-7
0.428233,-19,-115,8234,12,-20,-1
0.428372,41,-111,8352,63,-122,-64
0.428511,-59,-126,8279,44,-65,18
0.428651,-88,-154,8293,38,-58,-13
0.42879,-5,-92,8326,12,-71,-20
0.428929,15,-160,8336,56,-77,-32
0.429069,9,-139,8354,25,-71,-20
0.429208,76,-126,8327,44,-58,5
0.429347,26,-178,8306,63,-71,-45
0.429486,30,-129,8279,44,-65,-20
0.429626,18,-165,8318,63,-65,-20
0.429765,-2,-170,8324,0,-90,-39
0.429904,-40,-155,8368,75,-20,12
0.430044,2,-136,8369,50,-135,-64
0.430183,31,-97,8310,6,-26,12
0.430322,14,-101,8320,50,-97,-32
0.430462,38,-198,8281,38,-77,-13
0.430601,11,-142,8337,38,-65,-45
0.43074,3,-123,8316,31,-39,-7
0.43088,7,-156,8329,31,-109,-20
0.431019,-32,-104,8301,50,-52,-26
0.431158,0,-121,8282,69,-109,-32
0.431297,45,-168,8311,-25,-7,18
0.431437,1,-128,8332,100,-97,-39
0.431576,56,-81,8340,12,-71,-32
0.431715,33,-154,8295,31,-71,-13
0.431855,-7,-146,8306,88,-90,-13
0.431994,-4,-138,8346,31,-33,-26
0.432133,18,-117,8261,44,-90,-13
0.432273,3,-144,8281,44,-71,-13
0.432412,-17,-123,8328,25,-58,-32
0.432551,14,-119,8272,25,-58,-13
0.432692,17,-175,8244,100,-135,-45
0.43283,8,-151,8301,38,-33,18
0.432969,31,-84,8321,25,-65,-58
0.433108,83,-138,8337,56,-77,5
0.433248,9,-103,8335,38,-71,-39
0.433387,-4,-121,8305,82,-84,-13
0.433526,9,-131,8305,-13,-71,-13
0.433666,31,-126,8329,94,-71,-32
0.433805,-7,-100,8288,19,-65,-51
0.433944,-18,-167,8308,69,-71,18
0.434084,0,-126,8279,25,-109,-39
0.434223,42,-68,8277,25,-33,-20
0.434362,-6,-133,8364,31,-84,37
0.434502,-1,-106,8323,94,-90,-77
0.434641,30,-96,8282,6,-46,5
0.43478,-3,-122,8254,100,-103,-45
0.434919,-9,-127,8282,6,-52,5
0.435059,13,-144,8270,44,-84,-32
0.435198,66,-186,8257,38,-58,-7
0.435337,46,-119,8310,19,-71,12
0.435477,57,-137,8298,100,-84,-64
0.435616,35,-119,8307,6,-58,24
0.435755,23,-115,8285,75,-71,-70
0.435895,36,-140,8323,19,-65,18
0.436036,29,-101,8290,50,-84,-64
0.436173,10,-152,8295,31,-58,5
0.436314,6,-200,8283,56,-77,-20
0.436452,20,-133,8336,31,-58,-13
0.436591,-3,-102,8281,56,-58,-13
0.436731,-9,-94,8258,25,-77,-32
0.43687,74,-105,8222,50,-52,-20
0.43701,1,-86,8324,63,-71,-58
0.437154,-19,-122,8257,19,-71,12
0.437288,26,-100,8324,31,-71,-13
0.437427,-38,-149,8295,44,-46,-1
0.437566,-22,-157,8289,63,-58,-45
0.437707,47,-88,8288,63,-109,-26
0.437845,-19,-153,8349,-6,-52,-26
0.437984,-5,-156,8289,56,-65,-13
0.438124,29,-165,8328,63,-52,-39
0.438264,6,-150,8244,0,-90,12
0.438402,30,-90,8254,75,-71,-58
0.438542,-14,-133,8289,19,-46,-1
0.438682,35,-113,8298,75,-77,-51
0.43882,-1,-116,8324,12,-33,12
0.438959,-11,-124,8268,44,-109,-26
0.439099,6,-91,8273,56,-33,-20
0.439239,-44,-181,8251,50,-90,-45
0.439377,17,-125,8291,25,-58,-13
0.439519,5,-113,8274,44,-65,-1
0.439656,43,-147,8285,44,-97,-45
0.439795,40,-131,8311,38,-58,-7
0.439935,-17,-113,8330,56,-90,-39
0.440075,-14,-128,8276,38,-20,-20
0.440216,-28,-103,8335,69,-116,-20
0.440352,-13,-81,8352,12,-26,-26
0.440492,50,-123,8320,69,-97,-51
0.440632,-30,-107,8301,25,-65,24
0.440771,-11,-95,8251,50,-77,-70
0.44091,23,-85,8290,-6,-39,18
0.441049,29,-97,8300,100,-116,-39
0.441192,30,-160,8305,0,-26,12
0.441329,6,-152,8350,82,-116,-64
0.441467,23,-133,8310,50,-46,24
0.441606,-10,-116,8289,38,-71,-70
0.441745,9,-99,8343,6,-65,37
0.441885,24,-96,8321,100,-97,-39
0.442024,4,-151,8261,38,-46,-26
0.442163,11,-91,8286,44,-97,12
0.442307,-20,-151,8273,25,-58,-20
0.442442,25,-113,8272,56,-90,-32
0.442581,48,-134,8325,38,-58,-20
0.442721,-41,-80,8318,38,-90,-20
0.44286,-55,-104,8373,6,-7,5
0.442999,1,-146,8374,75,-141,-45
0.443138,20,-122,8338,63,-46,-26
0.443278,-32,-135,8338,-25,-58,24
0.443417,-37,-150,8315,94,-84,-45
0.443556,41,-171,8286,31,-65,-32
0.443696,-14,-118,8371,69,-97,-45
0.443835,-20,-99,8306,31,-33,50
0.443974,6,-116,8377,31,-103,-51
0.444114,-4,-147,8315,69,-97,-32
0.444253,-4,-212,8292,6,-46,-13
0.444392,-16,-146,8305,75,-84,-7
0.444532,-5,-121,8309,31,-84,-45
0.444671,-5,-98,8293,25,-46,-13
0.44481,4,-96,8309,75,-77,-7
0.444949,30,-73,8315,50,-90,-70
0.445089,-5,-126,8310,25,-39,37
0.445228,-78,-109,8297,19,-65,-39
0.445368,-19,-118,8321,100,-97,-58
0.445507,-23,-170,8279,25,-90,5
0.445646,56,-121,8347,56,-46,18
0.445785,-4,-108,8293,25,-84,-83
0.445925,-24,-95,8360,50,-58,18
0.446066,18,-148,8315,44,-58,-7
0.446204,52,-117,8327,44,-97,-45
0.446343,21,-123,8328,56,-58,-13
0.446482,53,-86,8287,25,-77,-20
0.446623,-1,-93,8313,31,-65,-26
0.446761,37,-88,8278,38,-109,-26
0.4469,16,-126,8211,31,-14,-7
0.447039,-41,-160,8268,69,-97,-20
0.447179,2,-120,8276,38,-65,-39
0.447319,-31,-139,8295,19,-84,-7
0.447457,33,-111,8329,38,-26,-26
0.447596,3,-105,8347,31,-135,-45
0.447737,20,-108,8305,50,-46,24
0.447875,14,-124,8315,12,-33,-32
0.448014,-13,-141,8353,69,-128,-51
0.448155,-29,-129,8257,38,-39,-7
0.448293,51,-111,8324,25,-46,-26
0.448432,-3,-144,8295,31,-65,5
0.448573,23,-180,8276,44,-97,-70
0.448711,-60,-171,8273,56,-46,31
0.44885,36,-96,8280,38,-58,-39
0.448991,27,-93,8343,69,-90,-45
0.449129,-19,-121,8307,12,-65,-7
0.44927,-5,-94,8226,12,-52,-13
0.449409,19,-143,8275,69,-103,-45
0.449547,25,-142,8328,38,-71,-7
0.449686,-23,-128,8306,56,-46,-32
0.449828,-10,-113,8332,25,-97,-1
0.449965,-4,-155,8269,56,-97,-13
0.450104,11,-119,8270,25,-33,-32
0.450245,2,-148,8314,69,-71,-7
0.450383,1,-154,8270,12,-52,-1
0.450522,13,-103,8311,82,-109,-45
0.450661,56,-94,8283,31,-46,-20
0.450801,41,-101,8227,-6,-77,-20
0.45094,-4,-80,8272,75,-52,-26
0.451079,40,-118,8278,25,-90,-13
0.45122,71,-108,8328,44,-71,-39
0.451358,62,-150,8316,44,-20,5
0.451497,-27,-148,8279,63,-122,-70
0.451642,17,-141,8310,31,-46,18
0.451776,4,-117,8304,25,-84,-13
0.451915,-35,-182,8312,69,-58,-39
0.452054,-20,-138,8284,63,-71,-26
0.452194,29,-159,8266,25,-65,24
0.452333,12,-158,8285,44,-65,-58
0.452472,16,-168,8238,31,-84,-1
0.452611,56,-118,8271,69,-71,-7
0.452751,24,-171,8296,31,-65,-45
0.45289,33,-136,8280,31,-46,-13
0.453029,18,-174,8309,12,-97,-26
0.453169,14,-164,8309,88,-77,-13
0.453308,-3,-155,8295,38,-33,-20
0.453448,57,-138,8306,12,-84,-45
0.453588,2,-94,8302,107,-84,-7
0.453726,-4,-143,8249,12,-71,-26
0.453867,-11,-131,8341,44,-39,-26
0.454009,3,-116,8297,56,-90,-32
0.454145,-9,-120,8294,69,-77,-26
0.454283,10,-151,8255,12,-71,-26
0.454423,34,-164,8315,44,-58,5
0.454562,51,-156,8319,56,-97,-32
0.454703,4,-129,8297,0,-14,-20
0.454841,-2,-165,8285,132,-97,-51
0.45498,3,-167,8253,-31,-46,24
0.455119,19,-123,8310,69,-58,-32
0.45526,20,-149,8325,75,-109,-51
0.455398,-46,-196,8359,6,-7,-7
0.455537,28,-106,8337,75,-154,-7
0.455676,-8,-124,8376,38,-46,-51
0.455815,50,-108,8280,38,-84,-39
0.455955,33,-106,8268,50,-65,37
0.456094,-7,-132,8287,38,-90,-70
0.456234,6,-129,8321,25,-58,24
0.456373,85,-97,8303,82,-65,-58
0.456512,-24,-111,8298,0,-77,-32
0.456652,6,-137,8273,56,-46,-13
0.456792,28,-144,8335,69,-109,-26
0.45693,-33,-179,8274,12,-52,-20
0.45707,-30,-172,8288,44,-71,5
0.457209,-12,-147,8318,63,-97,-83
0.45735,-3,-89,8309,25,-71,-1
0.457489,-55,-86,8282,56,-58,-26
0.457627,36,-125,8279,31,-84,-58
0.457766,48,-115,8266,44,-52,18
0.457906,16,-160,8248,50,-103,-26
0.458045,-31,-120,8257,50,-46,-58
0.458184,1,-71,8280,69,-84,-20
0.458323,63,-130,8297,12,-58,-20
0.458463,-13,-120,8285,44,-71,-13
0.458602,11,-129,8286,82,-77,-39
0.458741,-30,-114,8288,6,-46,12
0.458881,-34,-122,8306,63,-109,-64
0.45902,20,-109,8350,56,-52,5
0.459159,-11,-146,8363,12,-58,-13
0.459299,-17,-184,8294,88,-109,-58
0.459438,2,-147,8308,0,-52,-26
0.459577,-14,-146,8280,38,-65,-7
0.459716,16,-114,8317,50,-90,-26
0.459856,35,-118,8296,44,-58,-13
0.459995,8,-132,8294,44,-97,-45
0.460134,-14,-151,8288,31,-58,-1
0.460274,-13,-120,8269,56,-65,-20
0.460413,-9,-84,8313,44,-71,-39
0.460552,-6,-158,8288,31,-97,-1
0.460691,-7,-135,8262,88,-58,-26
0.460831,3,-185,8277,0,-52,-7
0.460971,-18,-171,8327,63,-71,-51
0.46111,39,-55,8332,44,-97,-13
0.461249,28,-67,8328,56,-77,-13
0.461388,0,-129,8319,31,-71,-7
0.461527,100,-134,8309,38,-33,-13
0.461667,17,-127,8273,63,-103,-39
0.461806,12,-58,8275,19,-46,-13
0.461945,22,-110,8284,63,-103,-32
0.462084,-39,-165,8323,38,-52,-20
0.462224,-2,-143,8287,56,-77,-20
0.462363,-4,-174,8292,44,-71,-51
0.462502,25,-96,8274,44,-65,18
0.462643,24,-153,8311,63,-90,-58
0.462781,-15,-121,8259,-6,-26,-13
0.462921,50,-74,8334,88,-116,-20
0.46306,65,-82,8326,19,-14,-1
0.463199,13,-174,8344,69,-154,-64
0.46334,29,-152,8297,19,-14,-1
0.463478,19,-128,8331,56,-103,-7
0.463617,54,-121,8332,-6,-7,-20
0.463756,-32,-106,8271,88,-103,-32
0.463896,-11,-143,8290,38,-77,-58
0.464036,9,-93,8330,44,-58,5
0.464174,-19,-85,8335,38,-58,-39
0.464315,15,-134,8310,38,-97,-26
0.464453,-3,-157,8306,56,-65,-45
0.464592,-9,-134,8306,19,-58,5
0.464731,17,-169,8280,82,-77,-64
0.464871,33,-119,8276,-19,-52,24
0.46501,-7,-154,8249,107,-90,-32
0.46515,10,-164,8285,19,-65,-20
0.465289,31,-119,8348,25,-58,-20
0.465428,70,-146,8328,38,-65,-20
0.465567,-29,-131,8270,75,-71,-45
0.465708,-26,-149,8233,44,-84,31
0.465851,-22,-186,8318,19,-46,-51
0.465985,51,-125,8330,44,-90,-13
0.466124,9,-109,8277,31,-14,-13
0.466264,-9,-166,8335,63,-84,-58
0.466404,26,-136,8369,44,-71,37
0.466543,24,-155,8315,31,-65,-64
0.466682,10,-117,8284,56,-71,-1
0.466821,53,-176,8273,6,-52,-26
0.46696,1,-190,8320,63,-71,-32
0.4671,-8,-158,8320,19,-58,-26
0.467239,-40,-115,8336,75,-77,24
0.467378,-18,-81,8335,50,-58,-89
0.467518,-18,-151,8318,25,-90,37
0.467657,-16,-150,8313,38,-77,-51
0.467796,-6,-172,8304,44,-33,12
0.467936,-28,-158,8330,31,-103,-51
0.468075,-18,-158,8281,63,-65,-20
0.468214,18,-141,8342,50,-58,-45
0.468354,-19,-111,8283,31,-77,5
0.468493,2,-165,8339,50,-71,-45
0.468632,-11,-200,8303,38,-58,-20
0.468772,46,-140,8315,63,-71,-20
0.468911,24,-115,8316,12,-109,-13
0.46905,-11,-79,8277,75,-26,-39
0.469189,34,-77,8294,31,-109,-26
0.469329,-22,-134,8306,31,-33,12
0.469468,-8,-120,8266,94,-109,-45
0.469607,-17,-123,8323,12,-58,-13
0.469746,-33,-86,8308,88,-77,-13
0.469886,13,-129,8296,19,-52,-13
0.470025,34,-140,8277,75,-58,-26
0.470165,-2,-150,8309,0,-84,-20
0.470307,-12,-133,8306,63,-97,-45
0.470443,45,-174,8323,56,-26,-1
0.470582,21,-88,8323,63,-84,-32
0.470722,-47,-140,8272,19,-77,-26
0.470861,10,-158,8299,50,-77,-13
0.471,57,-76,8270,63,-77,-20
0.47114,42,-154,8313,25,-58,-32
0.471279,0,-128,8260,56,-103,-7
0.471418,23,-164,8306,12,-26,-20
0.471558,-4,-153,8297,63,-77,-51
0.471697,22,-123,8275,31,-58,12
0.471836,-30,-139,8273,38,-58,-39
0.471975,29,-122,8334,63,-90,-39
0.472115,25,-161,8306,6,-52,24
0.472254,75,-122,8286,82,-90,-51
0.472393,84,-186,8331,19,-52,-26
0.472532,62,-173,8329,50,-103,-13
0.472673,-11,-145,8309,44,-39,-32
0.472812,-9,-161,8306,63,-84,-32
0.472951,-21,-159,8316,31,-52,31
0.47309,-56,-210,8283,31,-90,-51
0.47323,-11,-151,8301,31,-52,-1
0.47337,25,-124,8300,38,-77,-39
0.473508,76,-145,8307,56,-77,-13
0.473647,41,-184,8296,50,-77,-32
0.473786,48,-168,8280,-6,-39,31
0.473926,71,-141,8315,38,-77,-64
0.474067,7,-119,8292,75,-84,-13
0.474204,-34,-131,8317,12,-58,-1
0.474344,-39,-151,8363,82,-58,-26
0.474484,-46,-85,8340,38,-84,-32
0.474623,39,-109,8305,50,-65,-7
0.474762,0,-117,8338,12,-33,-7
0.474901,-25,-171,8335,100,-154,-45
0.47504,-4,-168,8349,-6,-33,-20
0.47518,-25,-123,8283,56,-77,-1
0.475319,-10,-108,8275,38,-65,-32
0.475458,30,-149,8291,19,-46,-32
0.475598,33,-147,8338,63,-103,-1
0.475737,-11,-144,8309,63,-97,-77
0.475876,-12,-159,8311,-13,-39,43
0.476015,13,-207,8330,75,-84,-39
0.476155,21,-149,8332,56,-90,-51
0.476294,-64,-115,8317,25,-20,18
0.476433,-5,-152,8308,82,-135,-51
0.476573,-8,-142,8279,-19,-20,5
0.476712,-82,-139,8295,100,-77,-45
0.476851,38,-130,8292,31,-84,-7
0.476991,24,-131,8284,38,-71,-13
0.47713,12,-152,8305,50,-46,-20
0.477269,2,-120,8303,75,-71,-45
0.477409,48,-110,8347,-13,-77,-13
0.477549,4,-134,8327,75,-77,-20
0.477687,-11,-138,8304,69,-65,-7
0.477826,31,-109,8293,12,-77,-51
0.477966,-31,-176,8310,25,-33,24
0.478107,-23,-168,8305,82,-103,-51
0.478246,39,-144,8332,31,-97,-32
0.478384,9,-156,8350,-13,-33,5
0.478523,-26,-72,8313,94,-77,-26
0.478663,11,-103,8289,12,-71,-13
0.478802,55,-133,8289,38,-58,-39
0.478941,66,-111,8288,50,-84,5
0.47908,-3,-169,8276,44,-46,-26
0.47922,-10,-151,8230,63,-103,-26
0.479359,12,-78,8316,38,-58,-13
0.479498,8,-68,8346,31,-65,-20
0.479638,-26,-139,8318,56,-90,-7
0.479777,-22,-126,8299,31,-26,-32
0.479916,-8,-115,8263,56,-97,-26
0.480055,-14,-150,8329,19,-71,-7
0.480195,17,-79,8300,75,-71,-39
0.480334,-25,-122,8299,6,-46,12
0.480473,20,-114,8372,75,-109,-45
0.480612,17,-109,8321,25,-58,-13
0.480752,-8,-169,8355,50,-65,-13
0.480891,-10,-127,8333,6,-58,-32
0.481031,60,-147,8304,82,-122,-13
0.48117,23,-207,8288,19,-26,-20
0.48131,5,-176,8257,94,-77,-26
0.481448,39,-149,8315,-25,-58,-7
0.481588,11,-105,8279,88,-77,-51
0.481727,28,-66,8318,50,-84,-7
0.481866,34,-80,8393,-6,-90,-20
0.482005,32,-141,8290,113,-77,-58
0.482145,-8,-103,8310,-13,-58,43
0.482284,-10,-133,8331,69,-84,-45
0.482424,0,-161,8271,44,-46,-32
0.482563,68,-127,8306,6,-65,5
0.482702,48,-154,8294,88,-84,-64
0.482842,35,-118,8332,12,-65,5
0.482981,13,-140,8308,94,-77,-32
0.483122,10,-117,8282,-6,-58,-1
0.483259,-3,-126,8308,75,-103,-32
0.483399,-19,-126,8293,44,-65,-26
0.483538,-30,-132,8273,50,-65,-7
0.483677,-26,-154,8296,6,-58,-13
0.483817,6,-103,8314,44,-84,-1
0.483958,2,-67,8274,88,-84,-70
0.484095,48,-93,8274,38,-71,12
0.484236,-3,-97,8302,12,-39,-20
0.484374,-9,-89,8305,44,-58,-26
0.484513,28,-176,8250,82,-90,-32
0.484652,4,-183,8306,0,-77,-13
0.484792,-7,-146,8314,82,-77,-39
0.484931,5,-133,8303,-6,-46,5
0.48507,-14,-124,8246,56,-71,-13
0.48521,-21,-149,8265,56,-58,-39
0.485349,19,-122,8333,44,-84,-7
0.485489,59,-64,8284,38,-46,5
0.485628,-25,-110,8289,12,-58,-26
0.485767,-34,-110,8289,56,-90,-39
0.485908,6,-149,8278,63,-52,-7
0.486046,14,-100,8251,12,-65,-13
0.486185,-22,-101,8285,82,-97,-39
0.486324,16,-114,8264,31,-33,-13
0.486465,52,-153,8288,38,-84,-7
0.486603,56,-159,8287,44,-65,-39
0.486742,46,-122,8284,44,-71,-7
0.486882,-28,-174,8305,50,-58,-20
0.487021,-30,-146,8320,31,-71,-20
0.48716,-24,-107,8294,63,-65,-20
0.487299,6,-97,8330,25,-77,-51
0.487439,-14,-122,8289,56,-109,-26
0.487578,-9,-131,8334,44,-14,24
0.487717,-15,-144,8346,31,-109,-32
0.487857,-9,-116,8298,56,-39,-39
0.487996,-44,-205,8310,44,-116,-13
0.488135,25,-162,8293,38,-58,-20
0.488274,8,-113,8293,38,-71,-32
0.488414,10,-140,8308,50,-65,-1
0.488555,-13,-156,8269,88,-116,-51
0.488692,22,-149,8310,25,-33,-13
0.488832,5,-197,8333,12,-84,-1
0.488971,-4,-135,8330,88,-90,-45
0.48911,-2,-71,8329,6,-52,-7
0.48925,-29,-121,8312,44,-65,-26
0.489389,-9,-175,8321,44,-90,-13
0.489528,25,-130,8294,56,-90,-58
0.489668,4,-116,8320,25,-46,18
0.489807,18,-148,8338,75,-103,-51
0.489946,3,-132,8338,25,-84,-26
0.490085,33,-143,8351,25,-65,-13
0.490225,77,-133,8308,56,-71,-7
0.490364,39,-149,8274,31,-65,-58
0.490504,34,-106,8305,12,-46,12
0.490643,27,-196,8299,100,-122,-58
0.490783,50,-155,8277,12,-14,-1
0.490921,23,-149,8297,56,-116,-32
0.491061,3,-142,8281,19,-65,-7
0.4912,8,-112,8237,63,-71,-26
0.491339,-17,-141,8330,19,-65,-1
0.49148,-5,-107,8299,50,-71,-64
0.491618,49,-96,8264,38,-77,18
0.491757,38,-121,8258,56,-71,-39
0.491896,-67,-112,8322,31,-52,-13
0.492036,-8,-153,8296,38,-71,-45
0.492175,23,-121,8308,69,-77,-13
0.492316,27,-146,8332,12,-58,-13
0.492454,44,-158,8313,69,-77,-26
0.492593,31,-107,8301,44,-77,-26
0.492734,44,-79,8312,44,-71,-1
0.492872,39,-135,8260,19,-71,-39
0.493011,-4,-146,8241,75,-84,-26
0.49315,79,-131,8296,12,-46,-1
0.493291,39,-95,8289,38,-58,-7
0.49343,24,-176,8277,75,-97,-26
0.493568,53,-205,8332,31,-77,-39
0.493707,39,-145,8336,44,-39,-7
0.493847,5,-126,8354,69,-77,-51
0.493986,6,-140,8299,-25,-58,18
0.494127,15,-147,8284,132,-122,-77
0.494265,45,-145,8305,12,-52,24
0.49441,15,-148,8276,6,-65,-51
0.494543,0,-170,8244,69,-58,5
0.494683,10,-137,8323,31,-84,-1
0.494823,25,-137,8310,19,-65,-70
0.494961,-44,-125,8316,38,-71,18
0.495101,2,-150,8304,88,-52,-51
0.49524,32,-127,8272,-19,-71,-13
0.495379,-31,-166,8307,100,-103,-32
0.495519,60,-107,8310,6,-52,-13
0.495658,22,-147,8305,82,-46,-13
0.495797,-16,-106,8278,25,-128,-45
0.495937,-11,-146,8300,31,-20,24
0.496076,-20,-145,8317,63,-109,-64
0.496215,9,-145,8302,44,-58,-1
0.496354,-24,-187,8341,31,-71,-7
0.496494,19,-106,8327,75,-46,-32
0.496633,0,-117,8264,38,-122,-13
0.496772,10,-119,8323,50,-46,-32
0.496912,-10,-102,8278,19,-52,-13
0.497051,19,-131,8318,56,-65,12
0.49719,46,-124,8318,38,-103,-77
0.49733,60,-129,8242,75,-39,5
0.497469,-11,-120,8320,25,-103,-58
0.497608,-8,-126,8349,31,-52,24
0.497748,3,-191,8293,50,-90,-51
0.497887,-26,-155,8301,31,-97,-1
0.498028,-47,-159,8284,75,-33,-51
0.498166,12,-102,8308,-25,-84,12
0.498307,-32,-159,8323,107,-84,-20
0.498444,-7,-173,8317,-6,-46,-39
0.498583,-13,-120,8308,100,-84,-7
0.498723,-9,-148,8352,19,-65,-32
0.498862,-42,-110,8347,38,-77,-20
0.499001,-9,-155,8309,56,-71,-13
0.499141,-28,-148,8303,19,-77,-45
0.49928,45,-152,8242,50,-77,5
0.499419,7,-124,8310,44,-52,-39
0.499558,7,-145,8316,88,-97,-13
0.499698,27,-93,8289,-31,-58,-39
0.499837,41,-40,8314,88,-77,5
0.499976,11,-122,8315,44,-58,-45
0.500116,-5,-136,8289,44,-58,-1
0.500255,-2,-141,8333,31,-84,-26
0.500394,-16,-154,8288,69,-90,-20
0.500533,-34,-142,8294,31,-71,-39
0.500673,31,-128,8313,6,-39,5
0.500813,-14,-165,8360,94,-103,-39
0.500951,17,-84,8294,50,-65,-13
0.501091,28,-62,8299,38,-90,-13
0.50123,-8,-129,8300,25,-58,-26
0.501369,59,-123,8300,44,-71,-7
0.501509,22,-187,8314,69,-103,-58
0.501648,9,-169,8315,38,-46,-1
0.501789,-7,-99,8332,19,-77,-7
0.501926,28,-135,8307,63,-71,-26
0.502066,-5,-152,8284,12,-65,-32
0.502205,39,-152,8321,94,-84,-1
0.502344,65,-150,8354,12,-71,-39
0.502484,62,-170,8353,50,-58,-20
0.502623,-20,-121,8273,56,-71,18
0.502762,-3,-174,8317,56,-103,-83
0.502902,-5,-138,8310,19,-14,12
0.503041,-35,-159,8329,31,-90,-13
0.50318,-4,-166,8343,69,-71,-51
0.503321,47,-177,8332,25,-58,37
0.503459,20,-152,8309,44,-84,-64
0.503598,52,-121,8241,63,-58,-26
0.503738,30,-135,8292,25,-77,-7
0.503877,-46,-128,8284,19,-77,-26
0.504017,5,-123,8305,69,-26,-45
0.504157,-39,-127,8334,6,-77,18
0.504295,-14,-201,8365,82,-58,-51
0.504434,-11,-137,8259,50,-84,-20
0.504574,33,-129,8293,6,-46,5
0.504713,29,-167,8343,56,-103,-39
0.504852,32,-177,8364,63,-39,-32
0.504991,0,-150,8289,0,-90,-13
0.505131,-17,-134,8271,75,-26,5
0.50527,2,-83,8318,50,-97,-64
0.505409,-12,-53,8347,44,-33,12
0.505549,-44,-78,8327,31,-103,-45
0.505688,16,-144,8336,63,-26,-26
0.505828,24,-142,8334,38,-116,-1
0.505967,13,-120,8351,25,-33,-32
0.506106,14,-129,8335,88,-90,-32
0.506245,-1,-159,8312,0,-58,-7
0.506385,5,-80,8245,88,-77,-26
0.506525,-24,-113,8255,12,-71,-26
0.506663,-33,-160,8319,56,-77,-13
0.506802,-13,-126,8300,25,-52,-13
0.506942,35,-185,8262,75,-90,-39
0.507081,-14,-139,8338,50,-46,12
0.50722,-22,-174,8304,31,-109,-32
0.50736,37,-148,8282,38,-65,-13
0.507503,-15,-127,8285,88,-58,-26
0.507638,23,-172,8319,12,-52,24
0.507777,-8,-186,8311,44,-71,-64
0.507917,14,-162,8311,75,-116,-13
0.508056,-40,-170,8297,44,-65,-7
0.508196,10,-162,8325,69,-84,-39
0.508335,25,-122,8315,12,-26,-13
0.508474,14,-189,8323,75,-103,-32
0.508613,-37,-118,8322,19,-71,24
0.508753,-43,-179,8286,25,-46,-39
0.508892,6,-152,8330,82,-109,-39
0.509032,13,-113,8276,38,-52,-7
0.509171,52,-101,8297,0,-46,-20
0.50931,-24,-155,8285,88,-141,-26
0.509449,16,-133,8268,12,-14,24
0.509589,7,-137,8261,44,-77,-45
0.509728,-19,-128,8324,38,-90,-39
0.509867,-14,-141,8320,50,-71,-1
0.510007,10,-126,8295,38,-65,-45
0.510146,21,-136,8283,38,-97,18
0.510285,-24,-167,8274,25,-46,-45
0.510425,9,-130,8357,44,-90,-13
0.510564,41,-119,8307,100,-46,-1
0.510703,-9,-128,8293,-6,-90,-51
0.510842,-44,-129,8314,38,-33,-20
0.510981,-35,-141,8236,38,-116,-13
0.511123,-27,-178,8293,50,-52,-77
0.51126,73,-130,8308,31,-84,37
0.5114,-5,-172,8276,63,-46,-7
0.511539,-18,-181,8294,50,-84,-32
0.511678,-3,-149,8319,50,-90,-32
0.511817,-7,-150,8257,12,-39,-1
0.511957,45,-116,8300,75,-84,-32
0.512096,-13,-137,8287,50,-103,-32
