Average_IMU_SPS_Hz,6876.021
IMU_Time_sec,Accel_X_raw,Accel_Y_raw,Accel_Z_raw,Gyro_X_raw,Gyro_Y_raw,Gyro_Z_raw
0.0,-7,-139,8350,38,-39,-1
0.000145,23,-165,8318,-6,-58,-51
0.000279,-24,-112,8215,88,-103,31
0.000418,14,-108,8288,12,-39,-51
0.000557,28,-127,8305,56,-77,-20
0.000697,-17,-105,8269,12,-65,-45
0.000836,-24,-124,8279,82,-77,-13
0.000975,70,-123,8297,31,-39,-13
0.001115,6,-127,8320,50,-109,-32
0.001254,4,-138,8311,12,-71,-7
0.001393,19,-124,8275,50,-77,-26
0.001533,-13,-139,8306,69,-52,-13
0.001672,47,-94,8269,25,-97,-51
0.001811,33,-98,8306,88,-52,-7
0.001951,4,-122,8329,19,-84,18
0.00209,14,-108,8244,6,-58,-51
0.002229,3,-129,8296,100,-84,-13
0.002368,38,-89,8300,6,-46,-13
0.002508,16,-129,8315,82,-90,-32
0.002647,38,-153,8265,19,-58,-51
0.002786,-1,-127,8308,50,-33,5
0.002926,33,-121,8256,94,-128,-45
0.003065,3,-72,8254,0,-20,5
0.003204,-3,-144,8309,56,-109,-39
0.003344,40,-108,8245,56,-26,-32
0.003483,34,-106,8244,25,-109,12
0.003622,32,-65,8309,50,-39,-32
0.003762,31,-122,8296,75,-97,-26
0.003901,40,-136,8227,19,-77,-32
0.00404,26,-175,8330,44,-52,-20
0.004179,17,-166,8300,63,-58,5
0.004319,33,-162,8302,38,-109,-51
0.004458,-4,-152,8315,38,-39,5
0.004597,-14,-126,8333,94,-84,-39
0.004737,-18,-156,8290,-6,-65,-1
0.004876,76,-99,8295,19,-77,-13
0.005015,24,-154,8267,63,-65,-51
0.005155,6,-97,8268,38,-90,5
0.005294,-34,-136,8315,63,-39,-1
0.005433,4,-136,8303,56,-122,-32
0.005573,9,-150,8335,31,-58,-51
0.005712,-37,-162,8291,50,-84,12
0.005851,-5,-131,8303,19,-46,-13
0.00599,23,-124,8339,50,-65,-39
0.00613,80,-156,8341,82,-116,-39
0.006269,6,-152,8355,25,-33,12
0.006412,12,-134,8389,50,-65,-39
0.006548,-28,-142,8331,31,-90,-20
0.006687,28,-113,8256,19,-39,12
0.006826,-16,-142,8303,75,-122,-51
0.006966,-2,-113,8279,50,-52,-26
0.007105,29,-58,8280,38,-58,-20
0.007244,28,-122,8297,31,-46,-1
0.007384,40,-177,8298,82,-122,-64
0.007523,-19,-132,8327,12,-39,-7
0.007662,53,-118,8269,75,-58,-13
0.007801,31,-160,8288,-6,-84,-32
0.007941,54,-112,8285,69,-46,-13
0.00808,57,-111,8320,44,-58,-26
0.008219,2,-143,8350,82,-97,-7
0.008359,-31,-157,8370,25,-58,-26
0.008498,52,-167,8358,12,-46,-20
0.008637,0,-183,8308,94,-109,-26
0.008777,22,-135,8291,-50,-26,-7
0.008916,5,-145,8341,119,-116,-32
0.009055,59,-117,8312,38,-46,-7
0.009195,43,-138,8301,69,-77,-51
0.009334,-11,-195,8271,50,-58,12
0.009473,41,-201,8291,-13,-52,-20
0.009612,32,-141,8314,107,-109,-26
0.009752,50,-107,8354,44,-33,-26
0.009891,38,-154,8288,25,-90,-13
0.010038,40,-125,8274,25,-71,5
0.01017,3,-196,8296,63,-46,-39
0.010309,17,-169,8331,50,-97,-13
0.010448,-40,-162,8291,44,-52,-45
0.010589,15,-188,8392,-6,-71,31
0.010727,40,-99,8318,94,-77,-58
0.010866,-49,-138,8329,38,-77,-1
0.011006,-14,-136,8273,44,-65,-39
0.011146,13,-162,8320,-6,-46,-1
0.011284,-8,-143,8292,113,-116,-20
0.011423,-4,-157,8334,12,-65,-51
0.011563,35,-158,8282,63,-58,-7
0.011702,-26,-151,8323,38,-90,24
0.011841,-38,-211,8319,94,-77,-58
0.011981,39,-175,8295,0,-58,-32
0.01212,16,-132,8298,56,-90,-20
0.012259,12,-150,8316,31,-46,12
0.012398,47,-167,8305,63,-77,-39
0.012538,38,-107,8259,50,-84,-39
0.012677,14,-152,8258,38,-58,31
0.012817,6,-97,8227,44,-46,-58
0.012956,-8,-157,8280,69,-116,-32
0.013095,15,-169,8282,6,-46,5
0.013237,48,-116,8291,50,-97,-64
0.013378,-2,-126,8316,44,-77,37
0.013513,42,-126,8272,38,-58,-83
0.013652,0,-144,8266,44,-39,43
0.013792,15,-142,8331,38,-103,-58
0.013931,11,-167,8298,38,-77,-20
0.01407,47,-116,8324,31,-52,-13
0.014211,8,-132,8249,50,-77,-26
0.014349,-2,-138,8238,19,-52,-26
0.014488,38,-100,8328,50,-84,-13
0.014627,22,-105,8325,19,-71,5
0.014768,67,-109,8288,69,-65,-70
0.014906,2,-164,8302,25,-77,5
0.015046,-73,-102,8278,38,-84,-20
0.015185,-44,-125,8327,44,-52,-13
0.015324,31,-160,8269,19,-97,-7
0.015463,30,-148,8244,63,-52,-39
0.015603,-13,-133,8278,56,-109,-32
0.015742,-13,-88,8268,-6,-14,18
0.015882,16,-144,8341,38,-90,-20
0.016021,-30,-154,8289,75,-90,-45
0.01616,12,-129,8302,19,-97,-20
0.016299,56,-152,8281,25,-7,-1
0.016439,25,-144,8276,63,-141,-45
0.016578,49,-61,8326,19,-39,24
0.016717,21,-107,8307,63,-77,-64
0.016856,26,-151,8333,31,-46,18
0.016996,28,-161,8308,82,-109,-77
0.017135,11,-97,8275,25,-58,-13
0.017275,18,-136,8261,50,-52,-7
0.017414,-64,-144,8285,50,-77,-1
0.017553,-63,-138,8350,25,-77,-77
0.017693,-28,-139,8269,50,-71,24
0.017832,-3,-201,8292,56,-77,-39
0.017971,-22,-173,8262,19,-84,-20
0.01811,-10,-171,8306,44,-84,-20
0.01825,-8,-144,8307,31,-52,-20
0.018389,-37,-161,8292,44,-84,-58
0.018528,-18,-181,8224,69,-65,24
0.018668,-14,-159,8264,31,-65,-1
0.018807,32,-181,8225,75,-90,-70
0.018946,19,-149,8260,0,-52,-1
0.019086,3,-107,8273,82,-84,-58
0.019225,42,-124,8294,12,-52,37
0.019364,50,-142,8292,63,-90,-89
0.019503,37,-104,8254,19,-33,12
0.019643,-11,-119,8293,63,-97,-39
0.019782,36,-124,8299,25,-52,-1
0.019921,9,-158,8291,38,-65,-13
0.02006,-38,-149,8239,50,-71,-26
0.0202,-33,-170,8285,38,-58,-13
0.020339,-28,-148,8276,50,-65,-32
0.020478,23,-160,8320,44,-97,-32
0.020618,38,-202,8330,56,-52,-1
0.020757,32,-109,8290,19,-65,-26
0.020896,8,-162,8325,50,-84,-7
0.021036,2,-183,8305,25,-58,-20
0.021175,14,-152,8280,44,-84,-13
0.021314,18,-134,8264,82,-84,-64
0.021453,0,-159,8259,0,-39,43
0.021593,-14,-103,8308,69,-97,-77
0.021733,-10,-94,8324,12,-58,18
0.021872,18,-125,8303,38,-39,-20
0.022011,20,-145,8317,88,-103,-13
0.022151,-15,-130,8308,19,-109,-70
0.02229,-19,-103,8307,44,-14,18
0.022429,-15,-131,8281,25,-84,-45
0.022568,58,-159,8291,63,-77,12
0.022707,33,-196,8354,19,-33,-32
0.022848,24,-125,8351,63,-97,-45
0.022986,-31,-118,8310,31,-52,12
0.023125,20,-108,8288,63,-58,-64
0.023267,47,-74,8221,12,-90,12
0.023404,31,-127,8303,44,-65,-45
0.023543,45,-140,8295,0,-46,-1
0.023683,8,-167,8307,69,-65,-26
0.023822,-21,-173,8282,69,-122,-58
0.023961,9,-117,8304,6,-14,50
0.024101,3,-87,8259,44,-135,-70
0.02424,22,-105,8298,56,-33,-7
0.024379,43,-79,8291,63,-84,-26
0.024519,7,-91,8327,31,-77,-13
0.024658,45,-113,8285,38,-90,-7
0.024797,103,-200,8295,50,-58,-20
0.024937,22,-128,8273,50,-65,-39
0.025076,29,-104,8245,6,-84,-13
0.025215,26,-130,8330,63,-71,5
0.025354,-18,-157,8365,38,-116,-45
0.025494,-27,-157,8331,25,-39,-13
0.025633,-8,-158,8294,75,-71,-13
0.025772,-17,-127,8304,19,-71,-32
0.025912,39,-134,8302,44,-84,-1
0.026051,6,-166,8315,38,-39,-32
0.02619,55,-134,8303,63,-97,-32
0.026329,17,-137,8197,56,-77,-13
0.026469,54,-78,8291,19,-58,-39
0.026608,37,-137,8307,44,-39,12
0.026748,-9,-91,8295,50,-97,-39
0.026887,62,-137,8329,-6,-65,12
0.027026,23,-164,8333,94,-90,-77
0.027165,8,-149,8321,-6,-52,43
0.027305,24,-157,8263,75,-97,-26
0.027444,11,-167,8322,56,-58,-45
0.027583,-18,-119,8295,12,-84,-7
0.027723,-24,-137,8278,38,-52,-1
0.027862,7,-187,8316,38,-77,-26
0.028001,68,-149,8282,38,-116,-39
0.02814,24,-118,8278,75,-14,-1
0.02828,-36,-136,8336,19,-116,-39
0.028419,-18,-145,8288,44,-26,-7
0.028559,-16,-140,8257,56,-122,-45
0.028698,-24,-186,8254,-13,-26,5
0.028837,-20,-143,8326,119,-97,-51
0.028976,14,-160,8347,25,-26,-7
0.029117,22,-171,8366,19,-84,-1
0.029255,12,-206,8339,38,-65,-39
0.029394,23,-155,8332,50,-71,-20
0.029534,14,-86,8289,31,-58,-20
0.029673,27,-132,8276,38,-58,-1
0.029813,56,-150,8303,63,-109,-45
0.029953,-7,-155,8345,63,-52,-32
0.030091,12,-165,8310,31,-52,12
0.03023,-12,-129,8280,19,-84,-45
0.03037,-24,-148,8346,82,-90,-20
0.030509,7,-137,8282,0,-58,-20
0.030648,34,-158,8303,69,-84,-1
0.030787,57,-161,8312,75,-58,-70
0.030926,-6,-148,8227,25,-90,31
0.031066,34,-117,8252,12,-58,-58
0.031205,-3,-135,8248,75,-71,18
0.031344,-64,-110,8313,12,-84,-26
0.031484,-13,-123,8360,63,-77,-64
0.031624,-15,-114,8341,50,-65,-26
0.031764,6,-112,8263,31,-65,12
0.031902,-3,-106,8268,50,-77,-51
0.032041,-9,-80,8279,50,-65,5
0.032182,32,-93,8332,50,-109,-26
0.032322,43,-108,8298,31,-52,-26
0.032459,-17,-157,8331,44,-84,-20
0.032598,6,-161,8294,75,-26,-13
0.032738,-63,-138,8276,0,-84,-26
0.032876,19,-153,8257,56,-90,-39
0.033016,17,-154,8216,44,-84,-1
0.033156,-21,-130,8200,25,-26,-20
0.033295,2,-141,8210,31,-77,-39
0.033434,-1,-158,8278,63,-109,-13
0.033573,-31,-88,8278,31,-20,18
0.033713,-14,-103,8308,38,-84,-45
0.033853,-34,-95,8321,75,-90,-45
0.033991,-17,-105,8332,25,-46,5
0.034131,12,-114,8249,31,-58,-32
0.03427,13,-105,8288,75,-84,-7
0.034409,33,-114,8256,44,-52,-26
0.034549,-2,-135,8308,31,-97,-13
0.034688,-9,-130,8315,75,-65,-45
0.034827,27,-130,8303,0,-71,-7
0.034967,46,-163,8272,63,-84,-13
0.035106,16,-127,8217,38,-77,-13
0.035245,42,-160,8295,50,-71,-39
0.035384,48,-152,8269,0,-26,-20
0.035524,-4,-93,8241,50,-90,31
0.035663,-21,-103,8252,63,-90,-77
0.035802,-8,-127,8317,69,-58,-26
0.035942,1,-125,8285,-6,-109,12
0.036081,-10,-91,8279,88,-14,-45
0.03622,13,-93,8244,38,-135,-32
0.03636,-17,-87,8240,19,-52,-13
0.036499,-18,-169,8235,56,-77,-32
0.036638,-20,-118,8276,-6,-33,31
0.036778,-9,-147,8325,113,-141,-83
0.036917,-12,-110,8270,-6,-58,5
0.037056,-40,-153,8309,56,-58,-26
0.037195,31,-91,8313,50,-84,-26
0.037335,32,-150,8288,31,-90,-20
0.037474,-13,-178,8296,63,-71,-45
0.037615,6,-136,8315,-31,-39,18
0.037753,-23,-140,8323,113,-84,-45
0.037892,23,-143,8327,6,-90,-20
0.038031,71,-146,8341,50,-58,-20
0.038171,8,-103,8344,56,-90,-26
0.03831,-15,-116,8320,31,-46,-45
0.038449,14,-152,8283,44,-77,5
0.038588,45,-188,8291,44,-58,-26
0.038728,57,-195,8281,56,-84,-39
0.038867,8,-140,8308,31,-71,-20
0.039006,46,-130,8267,44,-65,-7
0.039146,6,-178,8320,0,-39,-20
0.039285,-2,-150,8326,119,-97,-64
0.039424,44,-128,8331,-31,-46,12
0.039564,-12,-131,8364,88,-103,-20
0.039703,0,-192,8342,50,-46,-45
0.039842,14,-149,8350,25,-71,-26
0.039982,55,-141,8354,50,-77,-26
0.040121,42,-144,8309,12,-52,12
0.04026,51,-178,8368,63,-77,-32
0.0404,23,-165,8302,56,-97,-32
0.040539,-34,-208,8330,19,-26,-1
0.040678,-3,-193,8342,50,-109,-58
0.040817,-16,-183,8362,82,-39,-7
0.040957,-53,-205,8356,6,-58,-7
0.041096,4,-200,8348,69,-84,-20
0.041235,19,-154,8299,44,-71,-51
0.041378,-13,-122,8334,38,-65,-1
0.041514,12,-164,8335,44,-71,-26
0.041653,9,-139,8276,56,-71,-26
0.041793,59,-172,8286,44,-97,-13
0.041932,29,-158,8318,19,-33,12
0.042071,5,-198,8313,56,-84,-58
0.042211,33,-142,8347,69,-58,-13
0.042351,58,-126,8303,12,-46,-32
0.042489,37,-121,8328,88,-141,-32
0.042628,-15,-111,8316,6,-7,-13
0.042768,-6,-137,8346,63,-103,-1
0.042907,-10,-131,8331,25,-33,-51
0.043046,4,-182,8374,25,-109,5
0.043186,44,-160,8340,82,-71,-64
0.043325,71,-133,8304,19,-33,37
0.043464,-3,-121,8286,38,-52,-83
0.043604,-14,-152,8345,88,-109,12
0.043743,40,-187,8355,0,-39,-20
0.043883,68,-167,8358,50,-90,-7
0.044022,41,-141,8273,56,-58,-32
0.044161,7,-131,8322,56,-84,-26
0.0443,43,-125,8326,25,-77,-13
0.04444,17,-197,8315,25,-77,-20
0.044579,1,-150,8335,56,-39,-1
0.044718,-11,-162,8322,63,-116,-32
0.044857,16,-204,8300,6,-65,-26
0.044997,-27,-96,8353,94,-52,-32
0.045136,-19,-144,8359,-6,-97,-7
0.045275,59,-140,8362,75,-52,-45
0.045415,-14,-157,8334,44,-116,-26
0.045554,18,-208,8319,19,-7,-7
0.045693,6,-160,8337,69,-109,-32
0.045833,40,-102,8328,38,-65,5
0.045972,-46,-101,8360,50,-77,-51
0.046111,-27,-113,8377,25,-58,5
0.046251,4,-119,8286,75,-97,-58
0.04639,-36,-144,8298,6,-71,-7
0.046529,-8,-146,8265,88,-52,-32
0.046668,61,-116,8274,0,-46,-13
0.046808,66,-118,8258,88,-84,-1
0.046947,-22,-145,8286,50,-90,-70
0.047087,38,-119,8303,-6,-33,12
0.047226,11,-163,8328,69,-77,-45
0.047365,59,-141,8313,38,-71,5
0.047504,10,-163,8285,63,-71,-70
0.047644,18,-125,8322,19,-46,31
0.047783,39,-188,8313,25,-65,-39
0.047922,49,-122,8298,100,-90,-32
0.048063,22,-97,8282,0,-65,-32
0.048201,-12,-88,8255,63,-65,-1
0.04834,10,-195,8275,63,-58,-32
0.048479,-8,-120,8330,44,-84,-32
0.048619,-14,-139,8307,25,-20,-7
0.048758,-6,-164,8292,44,-116,-13
0.048897,-21,-130,8276,50,-65,5
0.049037,8,-129,8279,63,-65,-45
0.049177,-19,-154,8261,12,-97,-20
0.049315,32,-154,8324,63,-39,-13
0.049457,3,-129,8333,50,-109,-32
0.049594,-6,-179,8335,50,-52,-7
0.049733,-23,-86,8330,12,-65,-26
0.049873,2,-111,8286,44,-77,-13
0.050013,39,-170,8318,50,-52,-13
0.050151,48,-158,8319,25,-90,-20
0.050292,-31,-132,8333,63,-20,-13
0.05043,-22,-168,8322,19,-116,-20
0.050569,9,-154,8274,31,-39,-32
0.050708,-35,-161,8265,31,-71,18
0.050848,-15,-117,8297,56,-77,-45
0.050987,42,-164,8275,44,-77,-20
0.051128,3,-166,8332,44,-39,-20
0.051265,51,-133,8316,6,-90,-26
0.051405,-19,-144,8335,69,-39,-7
0.051544,-8,-143,8268,56,-97,-39
0.051686,23,-142,8290,63,-103,-26
0.051824,61,-105,8317,19,-33,37
0.051962,-24,-127,8331,56,-109,-64
0.052102,10,-107,8336,25,-46,-7
0.052241,8,-93,8266,107,-84,-26
0.05238,6,-146,8267,12,-58,-7
0.05252,6,-147,8317,56,-84,-32
0.052659,72,-177,8277,63,-58,-7
0.052798,7,-192,8240,12,-71,-32
0.052937,-64,-152,8318,31,-90,-26
0.053077,-6,-102,8321,69,-46,-13
0.053216,24,-201,8313,38,-77,-26
0.053356,14,-182,8292,31,-84,-13
0.053494,-11,-149,8302,31,-26,-1
0.053634,36,-111,8267,44,-71,-26
0.053773,2,-148,8318,63,-103,-58
0.053912,35,-154,8290,38,-46,5
0.054052,63,-164,8290,19,-90,-13
0.054191,22,-211,8292,38,-26,5
0.05433,42,-141,8312,69,-135,-58
0.05447,-24,-131,8281,6,-33,-13
0.054609,-8,-162,8274,75,-77,-39
0.054748,39,-156,8286,25,-71,12
0.054887,7,-109,8245,12,-77,-20
0.055027,14,-125,8247,100,-97,-70
0.055168,-9,-171,8255,-6,-26,56
0.055305,2,-100,8285,56,-84,-70
0.055445,-48,-155,8299,38,-65,5
0.055584,26,-145,8264,44,-84,-26
0.055725,10,-194,8289,56,-58,-51
0.055863,-12,-154,8296,12,-65,-1
0.056002,12,-127,8295,50,-39,5
0.056142,41,-153,8266,50,-97,-58
0.056281,0,-149,8254,63,-71,-13
0.05642,-34,-178,8270,44,-20,-20
0.05656,45,-143,8277,38,-116,-7
0.056699,87,-102,8344,6,-14,-7
0.056838,4,-115,8299,56,-109,-13
0.056977,-7,-124,8338,56,-71,-64
0.057119,-14,-158,8352,12,-20,50
0.057256,-27,-167,8281,75,-109,-77
0.057395,-8,-141,8251,0,-33,50
0.057535,33,-141,8287,88,-109,-96
0.057676,-24,-118,8282,6,-71,18
0.057813,42,-120,8295,31,-26,-1
0.057952,35,-119,8258,82,-97,-58
0.058093,25,-105,8272,25,-52,-7
0.058231,31,-93,8262,44,-46,5
0.058373,36,-125,8366,19,-52,-51
0.05851,36,-89,8281,31,-109,-20
0.058649,53,-140,8285,56,-39,-39
0.058788,-24,-176,8260,44,-77,18
0.058928,-4,-155,8267,69,-77,-45
0.059067,-40,-105,8290,25,-46,-1
0.059206,17,-134,8225,63,-116,-45
0.059346,-2,-139,8327,19,-52,24
0.059485,52,-115,8341,63,-90,-51
0.059624,35,-176,8335,50,-33,-32
0.059764,-18,-150,8348,38,-122,-39
0.059903,10,-108,8332,69,-71,-20
0.060042,-30,-131,8298,0,-58,-20
0.060182,16,-136,8267,31,-52,-7
0.060321,33,-176,8298,94,-122,-26
0.06046,12,-163,8315,31,-33,-45
0.0606,1,-115,8315,12,-84,5
0.060739,2,-113,8325,82,-71,-32
0.060878,12,-131,8324,-6,-65,-20
0.061017,2,-120,8284,94,-77,-39
0.061159,10,-178,8315,38,-39,5
0.0613,-8,-137,8337,31,-116,-39
0.06144,13,-152,8372,6,-20,18
0.061574,36,-144,8353,107,-77,-64
0.061716,-8,-186,8299,0,-90,-13
0.061854,21,-179,8299,38,-20,5
0.061992,-12,-228,8332,56,-109,-39
0.062132,2,-132,8274,25,-71,-13
0.062271,-35,-96,8268,69,-39,-20
0.06241,-15,-187,8321,25,-84,5
0.062549,-13,-139,8307,94,-84,-45
0.062689,-48,-154,8335,-25,-39,-7
0.062828,22,-155,8327,75,-103,-45
0.062969,46,-127,8318,31,-58,-1
0.063107,-11,-122,8324,19,-84,-39
0.063246,14,-110,8331,69,-77,-7
0.063388,3,-113,8307,38,-26,-13
0.063526,-8,-111,8336,31,-109,-58
0.063665,10,-143,8332,44,-71,5
0.063803,58,-140,8303,25,-33,-7
0.063943,20,-179,8275,69,-103,-51
0.064082,-4,-142,8260,44,-65,-20
0.064221,-4,-152,8325,25,-77,-13
0.064362,52,-110,8318,56,-84,24
0.0645,25,-147,8312,75,-84,-77
0.064639,-7,-164,8303,6,-14,24
0.06478,-35,-193,8294,38,-103,-26
0.064918,23,-130,8269,82,-58,-51
0.065057,12,-130,8285,50,-97,-39
0.065196,38,-110,8329,31,-26,12
0.065336,19,-142,8291,38,-90,-45
0.065476,21,-138,8255,56,-71,5
0.065614,21,-124,8320,44,-52,-58
0.065754,-16,-142,8278,19,-52,-1
0.065893,23,-158,8256,82,-71,-39
0.066035,-44,-152,8297,38,-77,5
0.066172,-9,-119,8301,6,-39,-32
0.066311,-22,-113,8305,38,-84,-32
0.06645,18,-138,8354,38,-71,-1
0.06659,-44,-149,8356,100,-84,-45
0.066729,-30,-198,8273,12,-84,12
0.066868,14,-138,8269,56,-71,-20
0.067008,10,-138,8305,44,-26,-45
0.067147,12,-174,8305,25,-58,12
0.067286,35,-144,8324,82,-109,-26
0.067426,-10,-124,8324,25,-46,-26
0.067565,32,-122,8315,63,-84,-13
0.067704,22,-128,8288,44,-52,-7
0.067843,-2,-155,8352,56,-65,-7
0.067983,29,-78,8372,44,-84,-58
0.068122,19,-99,8324,38,-77,18
0.068261,-1,-89,8239,44,-58,-39
0.068401,6,-127,8240,38,-77,-13
0.06854,-12,-132,8227,69,-71,-7
0.068679,-28,-122,8249,38,-77,-39
0.068819,-6,-181,8283,44,-52,-26
0.068958,21,-108,8291,44,-90,-32
0.069097,24,-100,8296,25,-58,12
0.069237,39,-140,8344,56,-65,-70
0.069378,40,-164,8300,44,-97,37
0.069515,67,-88,8328,38,-97,-70
0.069654,43,-106,8287,50,-33,-20
0.069794,8,-154,8274,44,-97,-39
0.069933,-50,-151,8284,31,-26,43
0.070072,39,-101,8324,75,-128,-83
0.070212,-49,-134,8308,25,-33,-7
0.070351,-9,-131,8286,50,-46,-1
0.07049,15,-139,8260,69,-97,-45
0.07063,39,-108,8298,50,-65,-13
0.070771,-20,-135,8243,6,-58,-32
0.070909,1,-93,8269,63,-103,-13
0.071049,16,-138,8303,38,-58,-26
0.071187,18,-101,8323,19,-71,18
0.071327,-7,-85,8279,69,-84,-77
0.071465,7,-143,8273,56,-52,-1
0.071605,-1,-135,8330,12,-58,-20
0.071744,-6,-169,8283,82,-109,-20
0.071883,15,-129,8264,6,-58,-32
0.072022,9,-172,8253,56,-58,-7
0.072162,7,-144,8244,50,-97,-45
0.072301,17,-138,8261,-6,-65,31
0.072441,13,-113,8309,75,-77,-64
0.07258,-35,-92,8302,38,-84,12
0.07272,35,-114,8294,19,-46,-32
0.072859,26,-154,8242,44,-84,-13
0.072998,29,-140,8296,56,-33,-32
0.073137,48,-188,8290,44,-116,5
0.073277,2,-133,8279,69,-46,-58
0.073417,-20,-140,8271,-6,-65,12
0.073555,20,-197,8289,50,-65,-39
0.073694,-11,-146,8278,44,-84,-51
0.073834,13,-89,8278,31,-71,18
0.073973,39,-128,8304,63,-77,-51
0.074113,32,-179,8302,12,-52,-26
0.074251,-17,-164,8281,63,-90,-13
0.074391,10,-116,8268,0,-39,-32
0.07453,12,-172,8220,56,-90,5
0.074671,-28,-147,8217,25,-58,-1
0.074809,-80,-157,8249,69,-71,-58
0.074948,-28,-147,8284,31,-65,-7
0.075088,0,-148,8319,0,-84,-7
0.075227,26,-131,8262,100,-90,-51
0.075366,2,-166,8251,0,-58,12
0.075508,11,-180,8303,56,-33,-26
0.075646,27,-126,8308,44,-128,-45
0.075784,9,-124,8347,50,-26,-13
0.075923,28,-166,8286,-6,-77,-1
0.076063,-46,-204,8296,88,-46,-13
0.076202,-7,-113,8336,38,-77,-58
0.076342,-31,-138,8349,19,-90,-1
0.076481,6,-117,8249,63,-71,-39
0.076621,23,-119,8285,38,-26,31
0.076759,53,-180,8304,50,-103,-77
0.076899,24,-170,8290,25,-58,-7
0.077038,-13,-141,8291,56,-90,-1
0.077177,-12,-146,8311,50,-58,-64
0.077316,33,-155,8331,44,-58,24
0.077455,6,-166,8288,19,-77,-7
0.077595,30,-119,8300,44,-84,-45
0.077734,-4,-153,8317,56,-71,-32
0.077874,1,-189,8365,38,-39,5
0.078013,39,-109,8336,25,-77,-32
0.078152,8,-74,8316,88,-84,-26
0.078291,-7,-130,8317,-6,-46,-7
0.078431,-10,-145,8310,82,-97,-51
0.07857,-35,-150,8308,25,-84,-1
0.07871,58,-142,8311,38,-39,-13
0.078849,31,-113,8296,63,-97,-64
0.078988,17,-140,8264,31,-46,18
0.079127,23,-155,8330,88,-97,-45
0.079267,-32,-152,8263,0,-52,-45
0.079406,27,-108,8287,69,-39,37
0.079545,7,-134,8296,25,-122,-70
0.079685,59,-148,8297,75,-65,-1
0.079824,38,-139,8266,31,-65,-13
0.079963,3,-132,8272,38,-46,-7
0.080103,52,-138,8244,50,-122,-45
0.080242,61,-116,8286,63,-58,-20
0.080381,-33,-121,8240,31,-33,12
0.08052,-27,-163,8284,63,-141,-45
0.08066,26,-136,8308,6,-33,-13
0.080801,0,-143,8339,100,-122,-26
0.08094,4,-137,8328,6,-33,-20
0.081078,-10,-118,8269,31,-77,-32
0.081223,-73,-136,8264,38,-71,-20
0.081356,37,-125,8301,63,-77,-20
0.081495,62,-165,8302,-13,-52,31
0.081635,-6,-165,8342,88,-84,-89
0.081774,-3,-136,8276,25,-58,12
0.081913,45,-135,8246,44,-77,-39
0.082053,39,-145,8306,38,-65,-20
0.082192,5,-134,8274,56,-65,-1
0.082331,-12,-90,8310,44,-97,-51
0.08247,-9,-91,8332,25,-20,5
0.08261,48,-84,8321,75,-122,-32
0.082749,59,-83,8329,44,-65,-1
0.08289,14,-80,8287,44,-71,-32
0.083029,6,-107,8279,6,-46,-39
0.083169,-20,-141,8302,82,-122,5
0.083306,39,-104,8312,6,-14,-26
0.083446,-9,-94,8314,88,-160,-51
0.083586,-5,-74,8277,19,12,5
0.083724,-25,-132,8275,-19,-84,12
0.083864,-6,-145,8285,100,-116,-64
0.084003,46,-52,8296,6,-46,-7
0.084142,-32,-127,8358,56,-65,-7
0.084284,-11,-144,8352,-6,-52,-7
0.084421,38,-98,8309,100,-97,-45
0.084561,16,-114,8292,-13,-65,-13
0.0847,30,-104,8323,63,-58,-13
0.084839,-38,-148,8288,69,-84,-58
0.084978,2,-156,8268,19,-84,-7
0.085118,-15,-199,8283,31,-71,-13
0.085258,26,-165,8258,38,-58,-7
0.085396,-8,-91,8280,69,-90,-39
0.085536,-35,-109,8270,38,-90,-45
0.085676,5,-145,8256,19,-33,31
0.085814,42,-133,8288,50,-116,-58
0.085953,0,-96,8322,56,-33,-20
0.086093,-22,-118,8330,38,-65,-13
0.086234,17,-134,8312,19,-109,-26
0.086373,-43,-170,8306,82,-71,-32
0.086511,18,-133,8326,-31,-26,-13
0.086651,-24,-93,8308,88,-116,-1
0.086789,-8,-169,8318,38,-97,-58
0.086929,8,-112,8329,12,-7,5
0.087068,-18,-145,8346,63,-116,-45
0.087207,-9,-166,8290,38,-71,-7
0.087346,5,-185,8294,25,-52,-32
0.087486,87,-152,8278,56,-90,-7
0.087625,23,-168,8324,38,-46,-32
0.087764,-33,-141,8311,56,-77,-13
0.087904,-8,-142,8328,25,-90,-20
0.088043,11,-86,8292,19,-97,-45
0.088183,18,-103,8343,31,-46,5
0.088322,45,-133,8303,31,-90,-20
0.088461,18,-120,8309,56,-46,-51
0.0886,5,-123,8268,31,-90,37
0.08874,18,-188,8291,75,-65,-77
0.088879,-18,-170,8355,19,-71,-1
0.089018,-46,-136,8301,25,-33,12
0.089158,-8,-148,8320,82,-135,-83
0.089297,16,-140,8309,6,-20,43
0.089436,13,-181,8310,50,-116,-64
0.089575,6,-186,8350,38,-20,12
0.089716,-2,-181,8292,50,-90,-32
0.089854,61,-98,8336,69,-77,-1
0.089993,22,-144,8384,-6,-58,-39
0.090133,16,-183,8297,75,-77,-20
0.090272,8,-132,8289,38,-77,-32
0.090411,-18,-188,8356,25,-65,5
0.090551,12,-122,8276,44,-97,-45
0.090696,20,-101,8311,31,-39,-13
0.09083,30,-114,8304,50,-77,-20
0.090969,49,-121,8336,50,-84,-32
0.091109,39,-130,8289,56,-77,-45
0.091247,37,-150,8280,44,-65,18
0.091387,34,-178,8293,44,-84,-39
0.091526,50,-152,8292,25,-46,-13
0.091665,4,-140,8278,12,-77,-32
0.091804,15,-113,8343,63,-84,-20
0.091943,-9,-157,8315,44,-52,-13
0.092083,12,-167,8307,50,-97,-45
0.092222,2,-156,8281,25,-65,-1
0.092361,-41,-185,8296,56,-97,-26
0.092502,51,-153,8277,44,-65,-7
0.09264,24,-114,8254,-6,-58,-32
0.092779,-39,-138,8302,82,-71,12
0.09292,-28,-120,8305,38,-84,-64
0.093059,31,-194,8274,38,-97,-1
0.093198,-23,-126,8336,44,-71,-39
0.093337,8,-135,8287,0,-20,-13
0.093476,10,-118,8256,38,-109,31
0.093616,17,-158,8292,44,-65,-70
0.093755,44,-189,8309,25,-26,12
0.093894,7,-111,8325,38,-109,-45
0.094033,19,-137,8290,56,-77,-26
0.094173,19,-128,8289,0,-65,-1
0.094313,-40,-137,8241,69,-46,-26
0.094451,-44,-138,8282,31,-65,-32
0.09459,-4,-168,8328,38,-77,-26
0.09473,-29,-159,8315,50,-71,-32
0.094869,38,-130,8290,31,-52,-1
0.095009,6,-181,8271,6,-84,-39
0.095148,16,-114,8235,82,-116,-45
0.095288,-2,-162,8311,19,-20,24
0.095427,-20,-184,8303,31,-116,-51
0.095566,2,-101,8297,50,-71,-13
0.095705,-34,-142,8291,38,-58,-26
0.095846,-14,-139,8267,56,-103,-32
0.095983,10,-145,8314,38,-39,-20
0.096123,-17,-136,8314,31,-65,-32
0.096263,3,-80,8315,50,-103,-13
0.096401,46,-140,8276,12,-26,-13
0.096541,39,-122,8273,75,-116,-45
0.09668,25,-166,8272,38,-39,-7
0.096819,-2,-153,8315,25,-77,-39
0.096959,-7,-105,8325,44,-71,-7
0.097098,23,-115,8353,50,-65,-26
0.097237,46,-135,8331,0,-71,-26
0.097378,19,-138,8341,63,-77,5
0.097516,19,-103,8329,94,-122,-77
0.097655,6,-161,8284,-25,-20,31
0.097794,-26,-107,8276,88,-71,-51
0.097934,-9,-166,8327,-19,-77,12
0.098073,11,-132,8296,63,-84,-20
0.098213,43,-50,8235,19,-52,-39
0.098352,23,-179,8312,63,-77,-1
0.098491,43,-199,8268,50,-97,-70
0.098631,26,-129,8271,-13,-39,18
0.09877,44,-143,8280,82,-109,-20
0.098909,19,-145,8307,-6,-39,-26
0.099048,22,-107,8265,63,-103,-26
0.099189,56,-116,8273,82,-71,-51
0.099327,51,-155,8286,-13,-58,12
0.099466,49,-122,8358,56,-97,-26
0.099606,-24,-110,8295,44,-77,-64
0.099745,9,-105,8277,25,-46,31
0.099884,-8,-147,8289,88,-122,-77
0.100024,2,-116,8266,6,-33,43
0.100167,40,-110,8290,63,-97,-96
0.100302,21,-140,8257,44,-52,12
0.100442,24,-138,8307,31,-84,-58
0.100581,42,-148,8308,25,-77,31
0.10072,2,-139,8298,50,-84,-39
0.100861,12,-124,8275,31,-46,-32
0.100999,78,-150,8269,63,-109,-20
0.101138,14,-128,8278,38,-46,5
0.101277,14,-150,8267,31,-97,-51
0.101417,18,-129,8274,50,-65,-45
0.101556,-15,-184,8288,25,-46,50
0.101695,58,-115,8281,44,-90,-70
0.101834,23,-115,8291,88,-71,-39
0.101974,16,-150,8356,0,-71,18
0.102113,25,-125,8307,75,-84,-70
0.102252,87,-95,8326,0,-33,24
0.102392,22,-166,8337,44,-97,-51
0.102532,7,-123,8296,50,-97,12
0.102671,17,-129,8279,44,-33,-45
0.10281,52,-148,8311,31,-90,-26
0.102949,12,-137,8321,56,-65,-39
0.103088,4,-113,8322,44,-97,-26
0.103227,9,-166,8377,31,-46,24
0.103371,69,-99,8278,56,-46,-45
0.103506,54,-113,8262,6,-97,-32
0.103647,0,-102,8236,75,-71,-7
0.103785,16,-126,8308,38,-77,-51
0.103924,8,-112,8296,25,-71,24
0.104063,19,-141,8299,38,-58,-51
0.104204,12,-159,8306,38,-65,-39
0.104342,41,-168,8296,44,-84,-7
0.104481,39,-141,8316,19,-39,-13
0.104621,52,-81,8331,44,-97,-20
0.10476,4,-135,8257,25,-65,-51
0.104899,18,-135,8260,75,-65,-7
0.105039,48,-148,8325,-6,-65,-26
0.105178,-28,-174,8320,63,-71,-7
0.105317,-25,-226,8308,56,-90,-58
0.105457,7,-122,8360,25,-65,-7
0.105596,45,-164,8315,44,-46,-20
0.105735,52,-162,8277,50,-116,-32
0.105875,2,-183,8281,0,-58,-1
0.106014,54,-138,8326,100,-77,-45
0.106153,14,-204,8303,0,-58,5
0.106293,-22,-186,8304,56,-58,-51
0.106432,10,-137,8309,50,-109,-1
0.106571,19,-112,8382,44,-52,-39
0.10671,24,-138,8322,-6,-52,-1
0.10685,-29,-164,8298,113,-90,-20
0.106989,-13,-170,8299,12,-65,-45
0.107128,8,-132,8321,38,-90,-1
0.107268,6,-114,8381,31,-52,-7
0.107407,8,-184,8319,56,-90,-77
0.107546,32,-181,8356,25,-46,24
0.107686,-8,-109,8318,75,-97,-64
0.107825,-14,-117,8325,12,-58,12
0.107964,-18,-160,8349,31,-65,-20
0.108104,42,-102,8342,56,-77,-70
0.108243,-14,-151,8348,31,-84,31
0.108382,-48,-130,8315,25,-65,-51
0.108521,17,-169,8313,69,-84,-1
0.108661,1,-132,8335,0,-52,-45
0.1088,27,-171,8337,75,-90,-45
0.108939,7,-136,8355,19,-65,12
0.109079,9,-122,8339,50,-84,-13
0.109218,17,-108,8280,38,-90,-51
0.109357,17,-182,8354,0,-71,-1
0.109497,-8,-161,8283,94,-65,-32
0.109638,9,-154,8265,-6,-52,-7
0.109775,54,-116,8288,63,-97,-45
0.109914,20,-177,8304,56,-65,18
0.110054,26,-164,8350,-13,-58,-58
0.110193,56,-136,8306,107,-109,-20
0.110333,92,-112,8352,25,-103,-45
0.110472,-55,-122,8308,6,-14,31
0.110611,19,-131,8317,69,-109,-51
0.11075,36,-200,8322,38,-26,-20
0.11089,10,-132,8345,31,-90,-20
0.11103,-19,-170,8328,44,-109,-26
0.11117,12,-146,8318,38,-33,-26
0.111308,20,-204,8285,50,-77,-1
0.111447,12,-146,8296,56,-97,-58
0.111586,31,-139,8310,0,-46,31
0.111725,8,-101,8363,50,-77,-64
0.111865,65,-140,8286,38,-77,-7
0.112004,-31,-152,8313,56,-65,-26
0.112143,25,-187,8310,0,-97,-32
0.112282,17,-124,8343,44,-71,-20
0.112423,24,-122,8308,25,-71,31
0.112561,15,-171,8328,75,-52,-89
0.112701,-2,-158,8371,25,-90,18
0.11284,-44,-132,8322,69,-52,-39
0.11298,26,-181,8251,6,-84,-32
0.113118,45,-181,8307,12,-52,18
0.113258,34,-138,8312,38,-90,-70
0.113397,-47,-152,8308,63,-26,31
0.113538,-18,-139,8301,50,-109,-83
0.113676,10,-174,8370,31,-71,-1
0.113815,-53,-171,8367,25,-39,-32
0.113954,44,-143,8293,44,-109,-26
0.114094,22,-99,8222,38,-26,-32
0.114234,-21,-163,8265,12,-84,-7
0.114373,14,-148,8303,69,-71,5
0.114512,-32,-120,8319,31,-77,-39
0.114651,-14,-147,8339,31,-77,-32
0.11479,-20,-176,8288,25,-71,-1
0.11493,-7,-163,8308,88,-109,-70
0.115069,19,-170,8337,-19,-20,18
0.115208,47,-142,8273,75,-109,-51
0.115347,32,-120,8223,44,-52,18
0.115487,40,-108,8266,38,-77,-70
0.115626,33,-168,8245,12,-65,24
0.115765,32,-113,8323,88,-65,-58
0.115905,40,-122,8316,6,-77,-20
0.116044,10,-127,8336,69,-71,12
0.116183,16,-123,8331,50,-46,-26
0.116323,-31,-154,8330,19,-90,-20
0.116462,-17,-166,8310,63,-77,-39
0.116601,23,-159,8278,44,-52,-1
0.116741,-15,-147,8316,31,-77,-39
0.11688,7,-164,8293,12,-84,-1
0.117019,12,-163,8289,94,-65,-39
0.117158,35,-83,8294,0,-58,-26
0.117298,37,-154,8296,44,-97,5
0.117437,12,-160,8346,44,-26,-26
0.117576,31,-142,8312,31,-71,-32
0.117716,-5,-139,8327,50,-77,12
0.117855,59,-157,8330,38,-90,-39
0.117994,13,-127,8295,44,-90,-1
0.118134,32,-226,8333,44,-52,-51
0.118273,11,-138,8334,12,-65,31
0.118412,35,-134,8302,94,-90,-83
0.118552,2,-123,8306,19,-58,18
0.118691,-62,-143,8308,56,-71,-26
0.11883,21,-181,8308,31,-77,-39
0.11897,57,-109,8275,25,-26,18
0.119109,-3,-138,8326,63,-116,-58
0.119248,-11,-174,8298,19,-26,-7
0.119388,28,-172,8292,75,-116,-32
0.119527,50,-135,8340,38,-58,-20
0.119666,21,-119,8366,38,-90,-20
0.119805,28,-122,8346,63,-46,-20
0.119945,8,-143,8337,25,-77,-26
0.120084,38,-159,8332,44,-116,-7
0.120223,15,-154,8299,82,-46,-39
0.120363,5,-160,8324,19,-97,-20
0.120502,65,-146,8326,63,-52,-20
0.120642,24,-163,8347,6,-90,-32
0.12078,-12,-168,8286,31,-52,-7
0.120921,-17,-128,8331,69,-77,-39
0.121059,36,-153,8296,25,-65,12
0.121198,34,-159,8331,25,-84,-45
0.121338,-26,-188,8385,63,-77,5
0.121477,14,-184,8318,31,-39,-32
0.121616,5,-134,8366,56,-97,-51
0.121755,34,-188,8364,12,-26,18
0.121895,10,-149,8321,56,-109,-39
0.122034,32,-117,8306,56,-39,-7
0.122173,42,-130,8371,25,-90,-39
0.122313,-24,-136,8325,63,-77,-26
0.122452,9,-86,8306,31,-52,-13
0.122592,64,-154,8321,19,-71,-45
0.122732,53,-218,8292,63,-84,-1
0.12287,34,-167,8341,25,-58,-26
0.12301,16,-181,8316,75,-103,-20
0.123149,-9,-119,8302,19,-52,-32
0.123288,55,-162,8315,50,-58,-13
0.123431,30,-193,8319,50,-71,-39
0.123567,23,-192,8316,44,-90,-7
0.123706,89,-172,8255,63,-46,-1
0.123845,49,-127,8297,44,-109,-70
0.123984,39,-140,8350,19,-39,50
0.124124,50,-122,8349,63,-77,-83
0.124263,22,-161,8313,6,-77,24
0.124402,-6,-210,8296,69,-71,-64
0.124542,22,-198,8311,31,-58,5
0.124681,46,-157,8268,31,-77,-32
0.12482,19,-127,8308,75,-77,5
0.12496,24,-122,8305,25,-65,-39
0.125099,41,-187,8323,31,-65,-7
0.125238,26,-192,8328,69,-84,-58
0.125378,19,-136,8293,19,-33,12
0.125517,58,-130,8355,44,-103,-1
0.125656,55,-141,8332,82,-71,-39
0.125795,29,-209,8373,6,-58,-45
0.125935,43,-125,8327,44,-77,-7
0.126074,8,-160,8285,50,-58,-7
0.126213,22,-136,8306,50,-97,-26
0.126353,38,-129,8313,25,-84,-39
0.126492,14,-124,8351,75,-46,5
0.126631,45,-139,8339,12,-65,-32
0.126771,81,-172,8341,31,-71,-45
0.12691,-18,-141,8313,63,-58,5
0.127049,24,-138,8283,25,-58,-32
0.127189,6,-176,8277,56,-58,-7
0.127328,12,-115,8336,44,-90,-45
0.127467,8,-181,8336,56,-52,-20
0.127607,16,-154,8281,19,-77,-7
0.127746,12,-163,8372,38,-58,-13
0.127885,74,-160,8288,56,-71,-39
0.128024,53,-148,8302,38,-103,-32
0.128164,36,-148,8281,82,-52,12
0.128303,-8,-143,8341,50,-71,-58
0.128442,26,-113,8338,19,-71,18
0.128582,33,-114,8290,0,-52,-26
0.128721,33,-137,8303,126,-90,-51
0.12886,2,-133,8287,-6,-90,-1
0.129,45,-192,8290,88,-46,-26
0.129139,-5,-133,8321,0,-84,-13
0.129278,18,-138,8284,63,-39,-26
0.129418,30,-136,8294,50,-116,-26
0.129557,0,-179,8257,38,-33,-13
0.129696,48,-134,8291,50,-90,-45
0.129835,78,-131,8312,38,-46,31
0.129975,36,-178,8304,38,-116,-64
0.130114,18,-158,8328,38,-33,5
0.130253,36,-149,8346,63,-97,-32
0.130393,-13,-130,8299,38,-71,-26
0.130532,-14,-186,8244,-13,-1,-13
0.130671,11,-196,8308,82,-116,5
0.130811,-9,-131,8274,31,-84,-51
0.13095,5,-169,8272,63,-77,-26
0.131089,-5,-150,8289,44,-77,-7
0.131229,-2,-143,8299,31,-52,-13
0.131368,20,-192,8291,56,-97,-51
0.131507,45,-126,8281,25,-52,31
0.131646,41,-166,8302,63,-77,-70
0.131786,26,-122,8375,31,-90,-32
0.131925,-32,-163,8327,75,-33,12
0.132064,-9,-132,8315,19,-97,-1
0.132204,20,-56,8352,69,-65,-64
0.132343,16,-157,8345,12,-77,5
0.132482,2,-118,8302,50,-46,5
0.132622,13,-139,8299,19,-90,-51
0.132761,24,-143,8321,82,-65,-32
0.1329,-8,-85,8320,12,-71,24
0.13304,44,-103,8324,50,-46,-45
0.133179,30,-150,8309,44,-122,-1
0.133318,-8,-135,8286,44,-33,-45
0.133457,7,-139,8340,69,-103,-20
0.133597,39,-135,8354,0,-39,-20
0.133736,28,-158,8289,75,-109,-1
0.133875,9,-172,8304,38,-46,-20
0.134015,13,-141,8290,44,-97,-26
0.134154,72,-144,8297,12,-52,5
0.134293,19,-156,8287,82,-71,-77
0.134433,36,-120,8268,38,-52,31
0.134572,-28,-181,8316,44,-90,-70
0.134711,2,-101,8328,25,-77,12
0.134851,15,-153,8298,38,-58,-7
0.13499,18,-181,8274,100,-103,-51
0.135129,1,-125,8310,-13,-46,24
0.135268,30,-190,8341,63,-65,-45
0.135408,-14,-165,8312,63,-122,-45
0.135547,6,-144,8270,25,-26,24
0.135686,17,-106,8292,56,-65,-39
0.135826,30,-167,8304,56,-90,-1
0.135965,16,-151,8326,56,-77,-39
0.136104,10,-121,8306,6,-84,-20
0.136244,42,-160,8296,75,-46,12
0.136383,-19,-165,8294,63,-97,-64
0.136522,8,-148,8295,0,-39,18
0.136662,-29,-137,8260,75,-77,-32
0.136801,-14,-152,8267,12,-58,-39
0.13694,33,-107,8316,50,-84,-1
0.13708,68,-130,8316,31,-52,-26
0.137219,18,-116,8289,69,-71,-45
0.137358,11,-133,8309,6,-58,12
0.137497,26,-113,8299,82,-109,-51
0.137637,-36,-113,8277,44,-33,-1
0.137776,-33,-124,8312,-13,-52,-1
0.137915,30,-132,8279,113,-90,-64
0.138055,20,-137,8240,31,-97,-13
0.138194,9,-131,8268,31,-39,-13
0.138333,36,-137,8260,63,-77,-39
0.138473,4,-94,8304,0,-58,12
0.138612,27,-131,8257,82,-90,-32
0.138751,35,-134,8295,38,-65,-58
0.13889,1,-138,8299,50,-65,5
0.13903,44,-117,8199,63,-71,-1
0.139169,33,-145,8288,44,-65,-51
0.139308,-29,-100,8302,19,-71,5
0.139448,-19,-103,8318,44,-90,-45
0.139587,-26,-159,8322,50,-77,-26
0.139726,-4,-127,8297,50,-65,12
0.139866,-23,-78,8256,44,-58,-39
0.140005,-41,-191,8258,44,-77,-26
0.140144,19,-150,8272,6,-39,-26
0.140284,-24,-154,8351,88,-116,-51
0.140423,-2,-176,8317,38,-58,5
0.140562,37,-131,8274,50,-58,-26
0.140701,52,-108,8262,50,-65,-32
0.140841,40,-130,8283,56,-84,-13
0.14098,32,-133,8296,63,-71,-64
0.141119,9,-133,8297,-6,-20,18
0.141259,37,-130,8286,82,-122,-20
0.141398,24,-135,8352,6,-20,-32
0.141537,38,-93,8291,82,-90,-26
0.141677,10,-163,8349,56,-77,-7
0.141816,-14,-151,8297,31,-26,-39
0.141955,32,-107,8319,44,-116,5
0.142095,5,-158,8319,12,-46,-45
0.142234,-7,-122,8333,82,-71,-32
0.142373,28,-106,8306,31,-84,-7
0.142512,8,-81,8312,44,-84,-32
0.142652,-2,-103,8337,56,-46,18
0.142791,0,-114,8265,44,-122,-70
0.14293,43,-120,8309,38,-7,31
0.14307,22,-200,8337,44,-109,-70
0.143209,2,-129,8295,56,-39,-20
0.143348,40,-91,8319,6,-84,24
0.143488,30,-109,8326,69,-77,-70
0.143627,-26,-121,8316,63,-84,12
0.143766,39,-124,8314,31,-26,-51
0.143906,32,-130,8348,31,-122,-13
0.144045,53,-167,8278,88,-84,-1
0.144184,50,-146,8320,-19,-58,-45
0.144323,12,-144,8340,69,-58,-20
0.144463,15,-131,8285,56,-90,-1
0.144602,56,-160,8304,31,-103,-45
0.144741,-21,-147,8338,63,-52,5
0.144881,23,-138,8323,-6,-71,-32
0.14502,50,-182,8306,69,-71,18
0.145159,9,-145,8347,75,-122,-64
0.145299,12,-190,8347,38,-26,-7
0.145438,-7,-168,8323,31,-58,5
0.145577,6,-135,8300,94,-116,-64
0.145717,-16,-200,8400,0,-20,24
0.145856,9,-160,8322,94,-84,-32
0.145996,20,-145,8267,6,-52,-26
0.146135,22,-157,8290,63,-97,-39
0.146274,-14,-158,8282,88,-58,-7
0.146419,4,-112,8335,-38,-26,5
0.146552,32,-170,8327,107,-122,-51
0.146692,38,-180,8319,-6,-33,-1
0.146831,-3,-125,8342,100,-103,-51
0.14697,-2,-126,8337,-6,-14,-1
0.147111,-7,-131,8338,69,-103,-32
0.147249,45,-110,8267,50,-52,-32
0.147388,17,-105,8329,12,-58,5
0.147528,-34,-138,8305,69,-128,-51
0.147667,-13,-137,8271,38,6,5
0.147807,8,-147,8312,75,-116,-26
0.147945,-15,-170,8300,44,-84,-45
0.148085,-21,-142,8275,-13,-20,-1
0.148224,-41,-119,8302,88,-58,-7
0.148365,10,-131,8305,12,-90,-26
0.148503,6,-174,8286,56,-65,-39
0.148643,-4,-155,8301,50,-65,12
0.148781,13,-172,8324,25,-46,-39
0.148921,-18,-173,8281,56,-90,-13
0.14906,45,-119,8254,69,-97,-39
0.149199,50,-110,8317,38,-39,-1
0.149338,-36,-145,8298,25,-71,-13
0.149478,-15,-98,8319,50,-77,-39
0.149617,-41,-149,8329,38,-90,5
0.149757,-15,-91,8313,63,-84,-39
0.149897,4,-71,8312,38,-58,-26
0.150035,-35,-132,8312,44,-84,-45
0.150174,5,-108,8345,31,-65,12
0.150314,30,-147,8301,6,-65,-45
0.150453,21,-164,8321,82,-103,12
0.150594,13,-178,8324,12,-39,-45
0.150732,-12,-147,8289,82,-122,-39
0.150871,-53,-149,8266,38,-33,-7
0.15101,3,-179,8273,31,-65,-20
0.151149,-17,-146,8304,31,-46,31
0.151289,6,-149,8279,100,-103,-96
0.151428,-3,-223,8293,-25,-52,37
0.151567,32,-176,8303,50,-84,-45
0.151707,6,-142,8328,44,-39,-32
0.151846,92,-120,8360,69,-77,-1
0.151985,8,-139,8315,12,-71,-32
0.152125,-16,-95,8244,56,-71,-1
0.152264,16,-144,8315,25,-71,-26
0.152403,32,-108,8336,38,-65,-13
0.152543,-11,-110,8347,56,-52,-39
0.152682,-21,-170,8288,69,-90,-26
0.152821,-11,-120,8311,-6,-46,18
0.152962,-14,-138,8296,75,-90,-45
0.153101,41,-200,8306,25,-33,-26
0.153239,-6,-143,8280,88,-109,-20
0.153379,7,-135,8314,-6,-20,-20
0.153518,42,-93,8288,63,-77,-13
0.15366,-44,-113,8334,94,-84,-32
0.153796,9,-110,8283,-6,-71,-26
0.153936,-26,-133,8298,50,-33,18
0.154075,-29,-153,8334,69,-135,-64
0.154214,-29,-179,8318,63,-26,-7
0.154354,37,-220,8307,-13,-65,-45
0.154493,-27,-164,8345,63,-71,18
0.154632,10,-169,8320,50,-109,-70
0.154772,-19,-186,8345,0,-33,12
0.154911,18,-148,8311,119,-122,-26
0.15505,-27,-208,8315,-19,-39,-32
0.15519,31,-130,8366,69,-77,5
0.15533,-8,-123,8278,6,-71,-26
0.155468,35,-125,8266,50,-26,-1
0.155607,1,-143,8304,50,-90,-45
0.155749,3,-178,8335,31,-84,-32
0.155886,12,-160,8352,100,-77,5
0.156026,42,-116,8323,-38,-7,-7
0.156165,11,-125,8260,56,-128,-45
0.156306,-36,-207,8281,50,-26,-20
0.156443,36,-85,8300,38,-109,-39
0.156583,6,-132,8324,31,-26,-7
0.156722,-29,-172,8335,56,-109,-13
0.156861,1,-97,8230,38,-39,-20
0.157001,15,-117,8278,38,-84,-45
0.157141,30,-169,8348,12,-71,-1
0.157279,72,-187,8305,88,-90,-39
0.157419,-14,-106,8299,50,-77,-20
0.157558,64,-111,8285,-6,-52,-13
0.157697,14,-149,8325,94,-71,-45
0.157836,20,-126,8333,-13,-71,18
0.157976,12,-178,8347,63,-77,-58
0.158115,20,-101,8270,50,-58,12
0.158254,31,-154,8301,31,-77,-58
0.158396,59,-195,8296,38,-71,12
0.158533,47,-173,8277,94,-84,-45
0.158672,12,-144,8313,6,-33,12
0.158813,8,-192,8306,50,-84,-58
0.158952,54,-127,8331,25,-97,5
0.15909,34,-173,8284,63,-33,-39
0.159231,62,-155,8367,56,-90,-26
0.159369,18,-184,8351,6,-52,12
0.159509,31,-189,8323,69,-84,-39
0.159647,27,-122,8300,25,-71,-32
0.159787,-23,-159,8344,50,-58,-13
0.159926,-23,-124,8310,38,-103,-20
0.160065,-14,-153,8255,31,-33,-13
0.160204,29,-157,8309,69,-103,-64
0.160344,32,-121,8278,44,-58,12
0.160483,77,-161,8279,56,-77,-7
0.160624,56,-199,8316,19,-71,-20
0.160762,-20,-157,8320,56,-77,-13
0.160903,-45,-114,8301,63,-65,-45
0.161041,52,-142,8286,-6,-71,-1
0.161181,23,-114,8279,82,-26,-7
0.161319,-20,-162,8298,-6,-90,-39
0.161459,43,-164,8293,63,-58,-7
0.161598,-29,-144,8339,50,-97,-32
0.161737,5,-74,8308,50,-65,-20
0.161876,-13,-171,8305,12,-39,-7
0.162017,39,-189,8327,75,-97,-39
0.162158,39,-145,8230,56,-52,-13
0.162294,33,-171,8317,0,-52,5
0.162436,45,-125,8283,38,-71,-51
0.162573,19,-129,8262,56,-77,-1
0.162712,-5,-187,8271,56,-109,-64
0.162851,-28,-123,8333,19,-14,18
0.162991,11,-126,8330,63,-103,-7
0.16313,31,-127,8318,12,-58,-45
0.163269,22,-197,8350,69,-77,-20
0.163413,75,-143,8297,19,-71,-7
0.163548,5,-148,8316,56,-58,-20
0.163687,-9,-148,8333,63,-71,-20
0.163827,33,-113,8312,31,-65,-45
0.163966,-15,-136,8355,25,-71,-7
0.164105,-18,-205,8307,44,-84,-20
0.164245,38,-170,8286,31,-26,-7
0.164384,25,-140,8317,113,-128,-64
0.164523,32,-96,8291,-19,-26,24
0.164663,38,-120,8222,94,-71,-32
0.164803,6,-167,8309,19,-90,-32
0.164941,-32,-137,8282,100,-65,-45
0.165081,17,-112,8305,-19,-46,18
0.165221,59,-143,8284,75,-71,-39
0.165359,31,-125,8307,31,-65,-13
0.165498,-28,-176,8343,56,-71,5
0.165639,17,-160,8298,12,-26,-26
0.165778,49,-118,8296,94,-135,-64
0.165916,20,-162,8275,-38,-52,37
0.166056,-14,-180,8325,113,-52,-58
0.166195,38,-156,8312,25,-71,-26
0.166334,-10,-141,8358,44,-77,-13
0.166475,-26,-142,8288,50,-90,-13
0.166613,-34,-186,8270,31,-52,-7
0.166752,1,-203,8283,63,-84,-26
0.166891,-18,-141,8252,38,-58,-39
0.167031,-33,-158,8279,31,-52,-1
0.16717,2,-164,8299,44,-84,-13
0.16731,23,-119,8338,88,-84,-26
0.167449,-11,-140,8379,19,-52,-1
0.167588,32,-144,8335,50,-65,-20
0.167727,2,-149,8313,6,-77,-20
0.167867,10,-176,8296,82,-90,-77
0.168006,37,-184,8291,38,-46,56
0.168145,-2,-128,8286,38,-46,-77
0.168285,-26,-121,8328,56,-103,-20
0.168424,45,-156,8301,12,-46,5
0.168563,6,-115,8267,69,-20,-39
0.168702,10,-131,8314,69,-141,-45
0.168842,8,-111,8332,-6,-58,18
0.168982,-18,-166,8315,100,-46,-58
0.169122,-7,-166,8324,12,-77,24
0.16926,30,-173,8323,38,-52,-70
0.169399,-4,-160,8270,50,-84,12
0.169538,-15,-161,8348,50,-65,-39
0.169678,16,-201,8343,19,-46,12
0.169817,21,-160,8321,50,-116,-45
0.169956,30,-133,8307,38,-46,-32
0.170095,31,-168,8354,50,-58,-7
0.170235,-11,-138,8301,31,-90,-26
0.170378,-18,-202,8316,38,-46,-26
0.170513,12,-181,8280,69,-84,-20
0.170653,1,-174,8318,19,-52,12
0.170792,9,-147,8352,69,-122,-58
0.170933,-41,-92,8352,69,-39,-26
0.171072,-31,-155,8349,38,-71,-1
0.17121,-6,-116,8309,56,-46,-7
0.17135,-11,-87,8286,25,-84,-58
0.171489,19,-182,8280,38,-58,12
0.171628,26,-102,8343,82,-103,-26
0.171767,42,-164,8311,25,-39,-32
0.171907,-8,-159,8309,50,-65,-7
0.172046,-56,-118,8246,63,-103,-26
0.172185,-12,-154,8324,6,-20,-7
0.172324,18,-108,8337,44,-71,-7
0.172466,23,-152,8248,75,-65,-26
0.172603,31,-212,8313,12,-84,-32
0.172742,45,-152,8297,50,-58,-32
0.172882,46,-132,8293,56,-46,18
0.173021,-30,-132,8302,50,-97,-13
0.17316,-11,-209,8303,31,-58,-7
0.1733,18,-174,8329,38,-71,-39
0.173439,36,-154,8235,38,-65,-45
0.173578,-18,-137,8338,69,-71,12
0.173718,4,-155,8282,38,-71,-45
0.173858,39,-144,8318,50,-65,-7
0.173996,-3,-92,8314,12,-77,-32
0.174136,12,-100,8322,75,-58,-7
0.174275,-47,-154,8305,19,-84,-13
0.174414,1,-151,8267,44,-52,-32
0.174555,45,-146,8316,50,-77,-7
0.174693,49,-152,8319,44,-77,-26
0.174832,2,-109,8330,31,-71,-45
0.174971,9,-125,8272,0,-33,18
0.175111,20,-146,8352,56,-97,-20
0.17525,10,-108,8343,56,-58,-51
0.175389,-10,-90,8289,56,-65,5
0.175529,22,-109,8238,50,-103,-32
0.175668,-24,-173,8271,19,-58,-13
0.175807,-35,-137,8303,44,-77,-26
0.175947,28,-156,8370,31,-58,-39
0.176086,71,-97,8330,63,-77,5
0.176225,28,-118,8316,31,-39,-39
0.176365,-18,-115,8336,75,-128,-20
0.176504,-35,-158,8281,25,-65,-7
0.176643,57,-161,8315,44,-65,-64
0.176783,5,-135,8331,56,-46,24
0.176922,1,-113,8320,31,-90,-26
0.177061,13,-150,8362,56,-65,-39
0.1772,-63,-139,8277,63,-84,-13
0.17734,-9,-91,8241,12,-52,-26
0.177479,5,-130,8287,69,-77,-7
0.177618,-28,-67,8300,31,-71,-1
0.177758,4,-92,8322,44,-71,-20
0.177897,-28,-124,8322,44,-71,-58
0.178036,23,-161,8303,50,-84,5
0.178176,15,-162,8302,38,-52,-26
0.178315,-67,-115,8313,56,-90,-20
0.178454,8,-135,8301,0,-65,5
0.178593,39,-158,8271,63,-77,-64
0.178732,1,-122,8246,25,-33,18
0.178872,20,-142,8297,75,-148,-58
0.179012,21,-91,8325,-6,-1,18
0.179151,-39,-132,8333,75,-97,-51
0.17929,-5,-150,8306,25,-26,5
0.179429,6,-168,8285,63,-103,-45
0.179569,-9,-160,8288,19,-52,-13
0.179708,30,-116,8279,50,-58,-13
0.179847,30,-162,8313,63,-90,-51
0.179986,-16,-146,8322,44,-52,5
0.180126,6,-148,8321,38,-84,-26
0.180265,-3,-132,8300,63,-84,-26
0.180404,71,-153,8317,44,-71,-51
0.180544,-5,-156,8272,25,-20,18
0.180683,1,-161,8279,25,-97,-32
0.180823,25,-101,8313,50,-71,-20
0.180963,-42,-120,8321,75,-103,-26
0.181101,5,-120,8304,0,-46,-1
0.18124,62,-109,8317,56,-103,-70
0.181379,36,-137,8307,56,-33,5
0.18152,29,-119,8345,12,-90,-1
0.181658,45,-91,8333,63,-77,-51
0.181797,-28,-126,8251,63,-39,-13
0.181937,13,-116,8341,31,-77,-7
0.182076,23,-115,8342,6,-65,-7
0.182217,10,-157,8362,75,-65,-32
0.182355,-40,-108,8315,50,-52,-26
0.182497,32,-155,8294,12,-58,5
0.182635,7,-142,8272,63,-65,-45
0.182773,-37,-167,8285,6,-84,-13
0.182912,32,-147,8313,88,-46,-51
0.183051,38,-180,8285,12,-65,43
0.183191,-3,-162,8302,56,-71,-64
0.18333,-14,-165,8330,25,-71,-7
0.183469,31,-187,8337,56,-65,-26
0.183609,34,-187,8290,44,-71,-7
0.183749,32,-218,8278,31,-58,-32
0.183887,54,-176,8281,31,-77,-13
0.184026,-28,-172,8307,69,-84,-45
0.184166,29,-105,8296,38,-52,-7
0.184305,9,-96,8302,19,-52,-7
0.184444,33,-126,8267,63,-77,-26
0.184584,-23,-157,8285,31,-65,-13
0.184723,35,-140,8262,31,-71,-26
0.184864,30,-126,8329,63,-26,-1
0.185002,32,-149,8288,38,-116,-51
0.185141,-41,-159,8300,44,-33,5
0.18528,-12,-160,8300,31,-46,-20
0.185419,-36,-202,8266,44,-97,-32
0.185559,14,-164,8290,44,-58,-26
0.185698,69,-153,8296,44,-77,-7
0.185838,-20,-134,8330,44,-58,-45
0.185977,-33,-132,8330,56,-65,5
0.186116,-4,-151,8304,31,-65,-39
0.186255,-15,-193,8305,25,-109,-20
0.186394,15,-100,8314,63,-33,-32
0.186534,28,-114,8336,38,-90,-32
0.186673,26,-134,8339,50,-33,24
0.186813,1,-173,8340,56,-103,-83
0.186952,1,-123,8363,44,-52,37
0.187091,85,-166,8354,63,-71,-51
0.187231,37,-130,8294,38,-52,-1
0.18737,-53,-164,8304,56,-71,-39
0.187509,-21,-132,8263,-6,-97,-13
0.187649,32,-127,8278,113,-58,-26
0.187788,56,-109,8299,0,-84,-26
0.187927,23,-168,8309,63,-58,-13
0.188066,19,-173,8286,44,-71,-13
0.188206,-30,-121,8319,0,-39,-32
0.188345,-10,-127,8275,63,-71,-32
0.188484,49,-153,8312,50,-84,-26
0.188624,69,-110,8313,44,-71,12
0.188763,-38,-108,8327,19,-46,-51
0.188902,3,-116,8285,82,-77,-26
0.189043,30,-160,8333,0,-20,31
0.189181,-6,-130,8298,75,-116,-51
0.18932,6,-113,8336,38,-58,-20
0.189459,41,-166,8314,56,-58,-7
0.189599,-14,-156,8314,63,-122,-51
0.189738,-3,-146,8317,44,-26,-20
0.189877,15,-140,8364,44,-65,-7
0.190016,-44,-142,8369,50,-77,-13
0.190156,6,-131,8315,44,-77,-51
0.190295,-4,-156,8347,12,-46,12
0.190434,19,-151,8316,63,-65,-32
0.190574,-24,-146,8305,25,-71,-13
0.190713,-9,-125,8355,69,-103,-58
0.190853,53,-120,8310,6,-1,12
0.190993,0,-154,8335,69,-90,-26
0.191131,1,-115,8339,6,-65,5
0.19127,30,-115,8332,63,-103,-58
0.19141,44,-116,8325,44,-20,5
0.191549,15,-152,8322,63,-116,-45
0.19169,-30,-111,8336,6,-33,-1
0.191828,-3,-168,8326,63,-90,-13
0.191967,31,-116,8314,56,-65,-32
0.192106,23,-113,8356,38,-58,5
0.192247,-56,-133,8326,63,-58,-45
0.192385,-25,-147,8396,12,-77,-26
0.192524,-35,-116,8295,44,-65,37
0.192664,-49,-154,8304,82,-71,-64
0.192803,-32,-127,8418,-6,-77,-26
0.192943,16,-114,8364,82,-52,5
0.193081,29,-119,8319,6,-116,-64
0.193221,12,-156,8350,56,-52,-1
0.19336,11,-123,8337,69,-65,-1
0.1935,-10,-153,8277,6,-71,-13
0.193639,6,-176,8327,63,-84,-32
0.193779,15,-153,8319,38,-65,-26
0.193917,8,-124,8315,75,-77,-39
0.194057,2,-145,8319,6,-58,18
0.194196,10,-126,8324,63,-71,-58
0.194335,-15,-148,8341,12,-71,-7
0.194476,11,-139,8341,75,-77,-20
0.194614,5,-149,8314,38,-33,-26
0.194753,20,-167,8310,25,-122,-45
0.194892,-32,-126,8299,38,-7,18
0.195032,-26,-125,8298,50,-71,-26
0.195171,-14,-99,8250,38,-90,-20
0.19531,-24,-96,8293,50,-58,-26
0.19545,-5,-93,8293,25,-65,-13
0.195589,-5,-92,8283,63,-77,-39
0.195728,-38,-127,8293,50,-71,-7
0.195868,-38,-148,8303,6,-46,12
0.196007,-43,-168,8338,94,-90,-70
0.196146,11,-170,8303,19,-52,-7
0.196286,16,-104,8314,44,-71,-26
0.196425,36,-163,8326,31,-71,-20
0.196564,43,-151,8325,75,-65,-20
0.196704,32,-151,8296,6,-58,-26
0.196843,47,-196,8299,50,-135,-45
0.196982,-4,-162,8276,25,-26,5
0.197121,17,-126,8310,63,-58,-39
0.197261,46,-128,8282,31,-65,-20
0.1974,0,-118,8276,56,-97,-26
0.197539,-42,-153,8384,56,-26,-1
0.197679,-14,-111,8288,50,-103,-45
0.197818,22,-146,8297,19,-65,18
0.197957,39,-110,8261,63,-77,-58
0.198097,16,-118,8297,25,-52,12
0.198236,7,-181,8298,44,-90,-26
0.198378,17,-138,8269,56,-20,-7
0.198514,-43,-105,8276,63,-154,-77
0.198654,-39,-114,8326,-6,-39,18
0.198793,13,-129,8337,75,-77,-13
0.198933,6,-113,8312,0,-33,-20
0.199073,-50,-140,8307,56,-128,-13
0.199211,-9,-152,8291,69,-20,-26
0.19935,5,-108,8250,25,-84,-20
0.19949,42,-109,8242,63,-52,-32
0.199629,7,-102,8290,69,-103,-32
0.199768,-14,-125,8280,-38,-33,18
0.199907,-9,-118,8291,132,-116,-77
0.200047,12,-100,8234,6,-71,-26
0.200186,9,-94,8245,19,-52,12
0.200325,-7,-143,8312,63,-39,-13
0.200465,6,-129,8291,31,-97,-45
0.200604,12,-122,8298,50,-58,-32
0.200744,32,-105,8276,25,-71,31
0.200883,1,-120,8318,100,-77,-51
0.201022,-5,-67,8333,19,-65,-45
0.201163,41,-66,8309,44,-65,-1
0.2013,-7,-124,8269,0,-58,-1
0.20144,-10,-138,8275,88,-71,-20
0.20158,27,-174,8256,38,-65,-32
0.201718,25,-155,8319,31,-77,-58
0.201858,31,-144,8331,50,-52,18
0.201997,17,-128,8282,31,-46,5
0.202136,16,-157,8254,44,-103,-83
0.202277,32,-103,8238,25,-46,5
0.202416,-3,-100,8265,44,-52,-26
0.202554,-10,-100,8216,69,-109,-32
0.202694,3,-145,8233,19,-26,-26
0.202833,-21,-79,8292,56,-109,-1
0.202972,-57,-74,8266,0,-52,-39
0.203112,-13,-105,8264,75,-90,-1
0.203251,-32,-153,8263,25,-39,-51
0.20339,-46,-155,8300,31,-109,18
0.20353,-16,-78,8298,75,-26,-39
0.203669,19,-162,8288,31,-122,-13
0.203808,37,-138,8224,12,-58,-51
0.203948,22,-144,8265,69,-77,-7
0.204087,-42,-151,8314,0,-77,-32
0.204226,14,-149,8276,63,-52,-7
0.204366,14,-75,8247,44,-103,-39
0.204505,42,-78,8240,56,-46,-32
0.204644,42,-168,8277,0,-71,18
0.204783,-22,-106,8307,82,-84,-58
0.204924,38,-191,8300,6,-71,-13
0.205062,63,-87,8318,56,-103,-20
0.205201,-22,-159,8346,25,-39,-26
0.205342,31,-178,8323,63,-84,-26
0.20548,-9,-113,8277,-13,-39,-20
0.205619,-7,-112,8267,56,-116,-26
0.20576,18,-161,8290,63,-46,-39
0.205898,37,-154,8281,0,-71,-1
0.206037,40,-154,8327,69,-52,-32
0.206177,2,-109,8316,19,-65,-13
0.206316,-5,-164,8302,75,-77,-45
0.206455,52,-122,8332,6,-33,24
0.206594,-18,-164,8260,75,-77,-51
0.206733,-45,-149,8289,0,-84,5
0.206873,37,-179,8265,69,-103,-45
0.207012,11,-125,8346,56,-33,-1
0.207152,-12,-173,8292,25,-90,-26
0.207291,15,-136,8308,75,-65,-26
0.20743,75,-178,8312,0,-65,-20
0.20757,40,-142,8310,63,-84,-20
0.207709,-12,-115,8283,19,-65,-45
0.207848,-4,-153,8309,38,-20,18
0.207987,-14,-173,8295,69,-116,-70
0.208127,-20,-103,8316,-6,-77,31
0.208266,33,-148,8326,69,-71,-64
0.208405,-25,-153,8331,6,-71,12
0.208545,-15,-145,8309,82,-103,-32
0.208684,7,-121,8270,50,-46,5
0.208826,36,-137,8266,69,-90,-64
0.208963,6,-148,8236,-19,-26,43
0.209102,14,-155,8276,69,-103,-77
0.209241,32,-166,8318,31,-77,12
0.209381,24,-147,8342,38,-65,-39
0.20952,42,-143,8311,63,-71,-26
0.20966,23,-120,8329,-13,-77,24
0.209798,37,-86,8328,94,-84,-77
0.209938,26,-102,8257,19,-58,18
0.210077,-37,-155,8328,82,-77,-51
0.210216,-14,-192,8352,31,-90,-1
0.210355,27,-179,8352,31,-39,-7
0.210495,31,-142,8288,69,-109,-32
0.210634,-24,-158,8300,-6,-46,-26
0.210775,-21,-133,8332,50,-84,12
0.210913,-22,-104,8278,56,-58,-51
0.211052,-40,-79,8259,69,-84,5
0.211192,29,-139,8357,-6,-65,-32
0.211332,37,-185,8334,94,-77,-26
0.211472,15,-144,8330,38,-77,-26
0.211609,16,-117,8328,31,-77,-39
0.211749,42,-142,8347,44,-39,18
0.211888,11,-170,8287,31,-109,-51
0.212027,-25,-160,8282,56,-46,-1
0.212168,-26,-146,8272,50,-65,-39
0.212306,-25,-175,8236,44,-116,12
0.212445,27,-164,8297,19,-14,-58
0.212585,27,-138,8309,88,-109,-20
0.212725,11,-182,8304,12,-46,-1
0.212863,15,-189,8310,69,-71,-45
0.213003,-1,-181,8290,-31,-84,5
0.213142,-19,-93,8300,126,-65,-51
0.213281,17,-162,8304,-6,-71,-7
0.21342,60,-166,8313,75,-65,-26
0.21356,-13,-157,8318,56,-84,-32
0.213699,-36,-142,8294,38,-39,-7
0.213838,17,-182,8284,56,-103,-7
0.213978,50,-140,8326,50,-103,-51
0.214117,23,-153,8278,50,-52,-20
0.214256,72,-188,8364,38,-52,-1
0.214395,29,-142,8359,63,-90,-45
0.214535,-26,-127,8342,25,-65,-7
0.214674,-22,-139,8314,82,-58,-51
0.214814,-6,-176,8338,25,-71,24
0.214953,56,-143,8320,19,-65,-39
0.215092,2,-122,8324,82,-46,5
0.215232,7,-115,8343,25,-90,-39
0.215371,27,-196,8314,56,-46,12
0.21551,19,-107,8280,44,-141,-39
0.215649,61,-123,8278,63,-26,-45
0.215789,21,-153,8345,38,-103,-13
0.215928,14,-88,8305,25,-39,31
0.216067,-12,-152,8321,100,-90,-64
0.216206,23,-125,8266,-25,-52,-1
0.216346,-33,-105,8291,94,-77,-39
0.216485,24,-148,8339,0,-58,-39
0.216625,45,-101,8342,75,-84,5
0.216764,33,-169,8288,31,-65,-26
0.216903,32,-200,8300,63,-90,-26
0.217043,18,-160,8283,44,-65,-26
0.217182,20,-148,8329,31,-65,-13
0.217321,33,-155,8272,44,-26,-13
0.21746,-2,-146,8288,44,-116,-39
0.2176,-12,-101,8314,88,-52,-1
0.217739,70,-125,8292,12,-65,-1
0.217878,46,-185,8301,44,-65,-26
0.218018,-16,-165,8303,63,-84,-32
0.218157,52,-198,8258,31,-71,-1
0.218296,23,-142,8293,63,-84,-26
0.218436,43,-114,8275,44,-77,-39
0.218575,9,-145,8298,25,-46,12
0.218714,36,-124,8277,75,-71,-58
0.218855,23,-165,8322,12,-97,5
0.218995,25,-108,8278,56,-39,-20
0.219132,17,-131,8277,44,-77,-39
0.219271,29,-78,8293,50,-97,-7
0.21941,94,-134,8268,44,-52,-26
0.21955,-19,-121,8278,19,-52,-13
0.219689,11,-109,8267,69,-71,-1
0.219828,38,-118,8282,38,-84,-58
0.219968,83,-155,8248,12,-84,12
0.220107,17,-108,8248,75,-58,-39
0.220246,-20,-95,8261,44,-103,-26
0.220386,38,-117,8255,63,-39,-32
0.220525,14,-141,8256,-19,-58,18
0.220665,7,-145,8264,100,-90,-58
0.220804,-33,-150,8259,0,-71,-20
0.220943,48,-86,8264,50,-65,-13
0.221082,34,-142,8281,69,-77,-13
0.221222,52,-128,8280,25,-65,-45
0.221361,23,-135,8285,44,-77,-7
0.2215,-10,-146,8256,44,-103,-45
0.22164,-12,-81,8265,50,-14,5
0.221779,0,-138,8325,25,-84,-32
0.221918,-16,-184,8330,63,-84,-7
0.222059,26,-133,8245,12,-33,-32
0.222198,-26,-120,8307,94,-109,-45
0.222337,-30,-129,8303,12,-26,-7
0.222476,37,-147,8286,31,-97,-20
0.222615,5,-135,8294,12,-33,-7
0.222754,-61,-116,8332,56,-109,-32
0.222893,7,-152,8246,31,-33,-32
0.223033,19,-148,8263,82,-116,-20
0.223172,-29,-95,8294,12,-14,-7
0.223311,-3,-92,8303,44,-103,-20
0.223451,-1,-169,8291,69,-58,-45
0.22359,2,-156,8299,-6,-65,-1
0.223729,20,-192,8350,88,-77,-26
0.223869,36,-113,8311,56,-77,-26
0.224008,-2,-160,8316,25,-58,-32
0.224147,13,-189,8321,31,-77,-1
0.224287,56,-156,8299,44,-58,-20
0.224426,50,-112,8286,44,-71,-26
0.224565,37,-134,8292,63,-65,-32
0.224705,10,-123,8312,56,-77,5
0.224844,-14,-131,8356,44,-39,-32
0.224983,30,-139,8347,12,-97,-26
0.225122,21,-110,8368,82,-77,-39
0.225262,26,-145,8276,31,-58,12
0.225401,36,-116,8324,31,-71,-51
0.22554,6,-152,8333,44,-58,12
0.22568,20,-135,8276,50,-77,-26
0.225819,-24,-174,8326,25,-52,-45
0.225958,51,-142,8368,38,-90,-1
0.226098,61,-149,8382,50,-52,-26
0.226237,61,-132,8328,56,-77,-7
0.226378,5,-181,8346,0,-65,-20
0.226515,-30,-169,8256,100,-84,-26
0.226655,16,-170,8324,6,-71,5
0.226794,-8,-163,8315,38,-65,-51
0.226933,31,-114,8357,63,-65,-1
0.227073,29,-123,8344,38,-97,-32
0.227212,15,-137,8338,25,-20,12
0.227351,16,-144,8352,75,-109,-45
0.227491,24,-153,8326,75,-71,-32
0.22763,-17,-105,8272,-25,-39,18
0.227769,47,-171,8268,107,-84,-45
0.227909,60,-194,8326,12,-71,-26
0.228048,73,-95,8341,63,-58,-20
0.228187,13,-125,8299,25,-39,-20
0.228326,13,-97,8379,31,-77,-20
0.228466,29,-110,8318,100,-97,-58
0.228605,-44,-159,8347,6,-46,12
0.228744,11,-184,8300,75,-90,-26
0.228884,40,-158,8338,6,-52,-20
0.229024,5,-133,8369,31,-65,37
0.229163,-19,-157,8321,63,-77,-96
0.229303,52,-179,8332,69,-46,12
0.229442,14,-146,8332,19,-109,-26
0.22958,-9,-168,8284,75,-65,18
0.229719,39,-145,8309,6,-58,-58
0.229859,15,-164,8305,75,-77,5
0.229998,-4,-192,8333,44,-46,-45
0.230137,32,-137,8403,56,-77,12
0.230276,-9,-153,8305,38,-46,-45
0.230416,54,-158,8336,38,-65,-13
0.230556,-9,-115,8309,56,-77,-26
0.230694,25,-101,8330,69,-65,-20
0.230834,-35,-142,8314,-19,-65,-13
0.230973,-24,-201,8314,119,-90,-58
0.231114,-87,-259,8317,19,-46,12
0.231252,-37,-147,8307,6,-58,-20
0.231395,-3,-121,8311,88,-84,-39
0.23153,0,-102,8259,0,-58,5
0.23167,-31,-127,8311,88,-71,-26
0.231809,68,-196,8317,-13,-26,-26
0.231948,-18,-151,8317,107,-116,-39
0.232088,-27,-96,8241,44,-46,-13
0.232227,-4,-126,8260,38,-65,-13
0.232366,3,-126,8238,31,-46,5
0.232507,-16,-157,8271,69,-116,-64
0.232645,6,-133,8296,50,-58,-20
0.232784,-4,-170,8328,25,-26,12
0.232924,-18,-138,8296,82,-109,-83
0.233063,39,-100,8295,-6,-52,31
0.233202,17,-99,8254,25,-77,-20
0.233341,-1,-93,8264,94,-97,-58
0.233481,22,-116,8244,12,-26,-1
0.23362,1,-145,8314,31,-97,-45
0.233759,-27,-127,8306,75,-65,-1
0.233899,21,-149,8294,25,-52,-7
0.234038,-8,-134,8283,50,-97,-51
0.234177,-13,-128,8232,38,-46,-7
0.234317,-31,-94,8241,82,-97,-13
0.234456,-8,-74,8248,-6,-58,-51
0.234595,14,-101,8252,75,-33,24
0.234735,-23,-158,8264,38,-109,-70
0.234874,15,-123,8257,31,-65,18
0.235013,41,-84,8286,63,-84,-39
0.235152,58,-144,8297,38,-33,-26
0.235292,-30,-165,8317,50,-84,-13
0.235431,15,-162,8260,50,-77,-20
0.23557,26,-124,8298,44,-58,-13
0.23571,23,-110,8299,44,-77,-20
0.235849,-17,-128,8283,63,-77,-51
0.235988,51,-131,8333,44,-77,5
0.236128,39,-138,8281,38,-52,-13
0.236267,0,-123,8289,6,-103,-58
0.236406,-15,-159,8256,69,-39,-26
0.236546,22,-110,8296,50,-90,-1
0.236685,-26,-115,8303,-6,-33,-7
0.236824,23,-159,8259,88,-116,-13
0.236963,-4,-137,8279,19,-39,-58
0.237103,-40,-131,8274,75,-90,-13
0.237242,-50,-116,8298,25,-65,12
0.237382,-12,-148,8329,50,-90,-51
0.237521,17,-117,8278,31,-97,-1
0.23766,6,-83,8224,38,-20,12
0.237799,25,-142,8210,75,-116,-64
0.237939,38,-120,8208,12,-26,-7
0.238078,5,-105,8276,50,-90,-32
0.238217,-10,-93,8248,44,-71,-7
0.238357,-24,-131,8249,50,-84,-20
0.238496,16,-186,8206,31,-33,-26
0.238635,14,-103,8255,44,-90,-20
0.238774,6,-160,8257,38,-77,-45
0.238914,2,-96,8243,31,-52,-1
0.239053,-7,-133,8280,88,-65,-13
0.239192,17,-108,8249,-13,-77,-32
0.239332,19,-84,8340,56,-58,-26
0.239471,-4,-133,8330,25,-103,-13
0.23961,16,-127,8269,44,-71,-20
0.23975,17,-106,8270,50,-46,-32
0.239889,50,-126,8321,44,-90,12
0.240028,-22,-95,8308,38,-46,-20
0.240168,-45,-158,8294,56,-84,-45
0.240307,-6,-149,8240,6,-84,-1
0.240446,-9,-153,8279,82,-65,-26
0.240585,8,-174,8276,56,-65,-13
0.240725,13,-106,8316,50,-90,-13
0.240864,34,-160,8311,44,-39,5
0.241003,-23,-186,8304,44,-84,-70
0.241143,-18,-123,8246,38,-71,31
0.241282,-6,-120,8265,63,-77,-83
0.241421,60,-157,8275,31,-77,-1
0.241561,17,-192,8294,50,-65,-1
0.2417,0,-135,8333,50,-90,-1
0.241839,-4,-142,8308,50,-26,-58
0.241979,21,-125,8248,19,-97,-1
0.242118,61,-124,8282,100,-90,-51
0.242257,30,-129,8304,-19,-33,37
0.242396,-9,-180,8298,63,-77,-45
0.242536,3,-198,8330,63,-97,-32
0.242675,-29,-132,8314,19,-39,-1
0.242814,54,-166,8328,50,-71,-51
0.242954,52,-187,8337,56,-52,-1
0.243093,45,-155,8296,31,-109,-70
0.243232,22,-125,8340,56,-39,43
0.243373,26,-169,8332,50,-97,-64
0.243511,-49,-126,8273,69,-20,-7
0.24365,21,-167,8282,12,-77,-7
0.24379,61,-123,8286,50,-97,-45
0.243929,12,-168,8282,25,-58,12
0.244068,27,-164,8364,69,-52,-39
0.244207,6,-159,8323,19,-71,-26
0.244347,32,-130,8337,56,-58,-7
0.244486,11,-208,8329,69,-97,-45
0.244625,58,-158,8390,44,-46,5
0.244765,9,-180,8349,38,-58,-39
0.244904,44,-207,8340,19,-90,-7
0.245043,-23,-156,8330,31,-52,-13
0.245183,-14,-131,8380,69,-97,-45
0.245322,48,-120,8332,75,-58,-26
0.245461,-32,-144,8314,6,-71,12
0.245601,-16,-144,8297,19,-52,-20
0.24574,43,-170,8332,126,-103,-51
0.245879,15,-167,8370,19,-39,-7
0.246019,6,-141,8324,63,-97,-13
0.246158,19,-181,8342,19,-58,-45
0.246297,-18,-150,8342,44,-71,-1
0.246436,-10,-151,8329,75,-65,-58
0.246576,-7,-175,8336,-31,-58,24
0.246715,5,-139,8328,107,-97,-39
0.246854,34,-125,8293,6,-46,-32
0.246994,33,-129,8296,75,-58,5
0.247133,38,-136,8313,31,-77,-39
0.247272,15,-153,8351,44,-46,-13
0.247412,14,-121,8345,44,-122,-32
0.247551,-52,-112,8340,31,-33,-1
0.24769,-5,-142,8306,38,-65,-20
0.247829,-23,-152,8331,50,-90,-58
0.247969,22,-144,8254,38,-26,18
0.248108,51,-168,8248,63,-116,-7
0.248247,38,-152,8301,38,-71,-83
0.248387,28,-192,8314,44,-46,43
0.248526,32,-147,8315,38,-90,-64
0.248665,-16,-151,8352,38,-46,37
0.248805,-24,-174,8322,94,-103,-70
0.248944,-2,-115,8341,0,-71,5
0.249083,-49,-159,8362,50,-58,-45
0.249223,40,-149,8324,50,-77,-13
0.249362,-2,-152,8302,50,-84,-13
0.249501,2,-139,8298,31,-39,-7
0.24964,12,-170,8272,38,-58,-26
0.24978,9,-142,8289,44,-122,-39
0.249919,27,-156,8303,50,-33,-1
0.250058,-1,-167,8296,44,-90,-26
0.250198,54,-138,8276,69,-58,-32
0.250337,26,-111,8290,-6,-65,-7
0.250476,20,-151,8272,69,-77,-13
0.250616,-18,-133,8281,56,-77,-13
0.250755,-32,-145,8284,31,-103,-26
0.250894,6,-153,8235,56,-58,-26
0.251034,-26,-86,8286,44,-58,-13
0.251173,-8,-129,8282,31,-90,-32
0.251312,-29,-160,8285,50,-52,-7
0.251451,7,-138,8326,50,-84,-51
0.251591,40,-46,8294,50,-52,12
0.25173,-23,-114,8287,19,-71,-45
0.25187,32,-142,8312,50,-65,-7
0.252009,13,-163,8321,44,-90,-26
0.252148,21,-137,8292,31,-33,5
0.252287,-8,-113,8317,63,-77,-32
0.252427,17,-125,8277,44,-97,-39
0.252566,-7,-130,8258,31,-52,-1
0.252705,-44,-99,8343,88,-77,-64
0.252845,22,-123,8348,-6,-77,37
0.252984,-20,-140,8285,56,-65,-45
0.253123,14,-158,8290,69,-52,5
0.253263,37,-130,8237,44,-122,-39
0.253402,-36,-145,8242,56,-71,-13
0.253541,-46,-175,8268,44,-46,-39
0.25368,-7,-147,8298,31,-77,-20
0.25382,-2,-176,8306,44,-58,-39
0.253959,-10,-128,8293,38,-71,-1
0.254098,-20,-101,8287,82,-103,-45
0.254238,1,-122,8274,6,-20,31
0.254378,52,-184,8254,82,-90,-89
0.254516,24,-150,8337,6,-46,24
0.254656,26,-119,8284,63,-103,-45
0.254795,18,-144,8326,69,-65,-39
0.254936,-10,-159,8341,0,-58,-13
0.255074,-8,-173,8318,56,-71,-7
0.255213,70,-136,8275,69,-97,-32
0.255354,33,-76,8244,6,-33,12
0.255491,-6,-154,8272,31,-97,-64
0.255631,-32,-203,8332,56,-52,5
0.255771,16,-185,8352,6,-46,-13
0.255909,15,-246,8344,94,-65,-39
0.256049,-1,-164,8258,0,-71,5
0.256189,27,-132,8276,75,-84,-26
0.256327,-7,-182,8263,6,-52,-20
0.256468,-8,-127,8284,82,-135,-45
0.256607,-51,-156,8353,12,-20,5
0.256745,-24,-136,8324,56,-65,-26
0.256885,-12,-157,8280,69,-84,-39
0.257025,-19,-156,8303,50,-65,-7
0.257163,24,-105,8324,12,-58,-20
0.257302,-70,-111,8296,82,-90,-45
0.257442,8,-155,8319,31,-52,-1
0.257581,18,-159,8368,44,-65,-26
0.25772,38,-96,8275,31,-58,-13
0.25786,-9,-105,8267,12,-46,-13
0.258,51,-126,8299,100,-84,-70
0.258138,30,-168,8324,25,-71,31
0.258279,-50,-186,8371,19,-71,-26
0.258421,8,-156,8290,88,-71,-51
0.258556,12,-197,8302,6,-52,31
0.258695,69,-101,8295,75,-65,-58
0.258837,4,-147,8319,0,-77,18
0.258974,20,-135,8340,88,-71,-64
0.259114,11,-119,8312,50,-46,-13
0.259253,31,-171,8344,38,-58,-32
0.259393,21,-196,8337,0,-97,-7
0.259532,-12,-153,8338,56,-58,-13
0.259671,18,-193,8256,50,-77,-39
0.25981,52,-136,8313,50,-65,-13
0.259949,-22,-175,8273,12,-84,-13
0.26009,-17,-210,8292,75,-65,-20
0.260228,-14,-130,8311,25,-52,-26
0.260367,-11,-168,8261,63,-84,-51
0.260508,58,-135,8348,25,-39,37
0.260647,19,-123,8385,56,-84,-13
0.260785,40,-161,8286,50,-109,-39
0.260925,74,-147,8335,56,-58,-45
0.261064,19,-123,8294,0,-26,43
0.261203,4,-159,8328,113,-103,-102
0.261342,13,-148,8325,19,-77,18
0.261482,4,-134,8347,19,-46,-1
0.261621,-13,-145,8349,82,-46,-39
0.26176,-22,-187,8295,44,-116,-32
0.261899,-4,-137,8318,88,-77,-39
0.262039,44,-214,8319,0,-14,37
0.262178,3,-148,8374,75,-84,-51
0.262317,-15,-165,8389,25,-71,-13
0.262457,-4,-201,8329,63,-58,-13
0.262596,53,-146,8315,63,-109,-13
0.262735,-6,-146,8310,31,-52,-64
0.262875,-22,-134,8304,75,-58,-1
0.263014,12,-151,8289,38,-77,-20
0.263153,40,-170,8293,38,-84,-7
0.263293,61,-150,8339,56,-52,-32
0.263432,-48,-178,8279,56,-109,-20
0.263571,-8,-193,8276,75,-33,-13
0.26371,33,-155,8338,0,-90,-13
0.26385,30,-120,8402,44,-65,18
0.26399,36,-156,8393,88,-97,-77
0.26413,44,-217,8353,-31,-58,-7
0.264268,17,-172,8285,94,-90,-39
0.264407,36,-164,8317,31,-58,-1
0.264547,67,-165,8288,12,-65,-13
0.264686,37,-163,8310,50,-71,-26
0.264825,30,-239,8311,75,-46,-20
0.264964,14,-185,8311,31,-77,-32
0.265104,13,-121,8301,44,-84,-32
0.265243,29,-131,8319,69,-46,-13
0.265382,16,-105,8319,6,-103,-39
0.265523,-28,-143,8347,44,-39,-7
0.265661,14,-168,8305,50,-71,-32
0.2658,2,-141,8301,31,-52,-1
0.265939,-35,-123,8328,50,-97,-39
0.266079,55,-158,8320,44,-26,-1
0.266218,28,-183,8261,75,-109,-45
0.266359,53,-147,8320,-32,-39,24
0.266497,35,-117,8401,75,-116,-58
0.266636,47,-146,8312,50,-33,-32
0.266777,0,-152,8302,31,-77,-20
0.266915,7,-130,8312,38,-77,5
0.267054,-2,-129,8272,31,-65,-58
0.267195,15,-151,8280,63,-65,-26
0.267333,-4,-206,8321,44,-71,-26
0.267474,45,-140,8326,-13,-46,-1
0.267611,43,-161,8273,94,-77,-51
0.267751,42,-128,8292,25,-46,-13
0.267891,3,-122,8320,25,-65,-20
0.268029,-13,-129,8359,75,-84,-32
0.268169,-67,-144,8333,0,-26,24
0.268309,16,-160,8318,69,-103,-58
0.268449,25,-133,8320,44,-46,-20
0.268586,67,-164,8278,69,-71,-32
0.268726,-12,-109,8269,19,-90,24
0.268865,38,-185,8296,56,-71,-45
0.269004,19,-142,8315,25,-46,-7
0.269144,-6,-170,8315,88,-77,-51
0.269283,14,-124,8245,-13,-58,5
0.269422,35,-116,8268,113,-128,-26
0.269562,21,-160,8290,6,-26,-7
0.269701,-12,-148,8343,50,-84,-39
0.26984,-12,-100,8304,69,-71,12
0.26998,-14,-151,8286,38,-71,-64
0.270123,16,-102,8248,31,-20,5
0.270259,-9,-163,8302,44,-90,-7
0.270397,20,-146,8293,50,-77,-45
0.270537,1,-152,8317,82,-84,-13
0.270677,27,-105,8292,0,-46,-7
0.270815,-18,-90,8267,56,-71,-45
0.270956,-46,-115,8317,44,-65,-26
0.271094,-38,-134,8356,63,-71,-26
0.271236,1,-156,8311,0,-77,-1
0.271373,47,-123,8302,69,-65,-20
0.271512,27,-112,8321,50,-71,-26
0.271651,-40,-130,8302,12,-77,-20
0.271791,-31,-111,8302,82,-46,-20
0.27193,-44,-171,8251,25,-77,5
0.272069,26,-136,8283,31,-65,-39
0.272209,76,-169,8264,75,-52,-1
0.272348,29,-150,8317,56,-97,-58
0.272487,17,-149,8292,19,-58,-7
0.272626,-21,-108,8341,69,-71,-1
0.272766,3,-92,8225,44,-71,-51
0.272905,23,-135,8284,31,-52,18
0.273044,-19,-179,8326,38,-77,-45
0.273183,-53,-178,8286,63,-77,-26
0.273323,21,-188,8284,38,-39,24
0.273462,-8,-153,8308,38,-109,-77
0.273601,6,-121,8312,44,-65,24
0.273742,-8,-132,8305,31,-52,-26
0.27388,-75,-176,8300,56,-65,-39
0.274019,-19,-193,8335,63,-90,-32
0.274161,31,-180,8362,12,-33,24
0.274299,58,-144,8316,69,-84,-39
0.274437,-8,-209,8342,6,-46,-51
0.274577,19,-176,8315,63,-90,-7
0.274716,-17,-116,8275,56,-71,-26
0.274858,12,-148,8288,38,-39,-20
0.274995,12,-104,8321,38,-90,-20
0.275134,24,-89,8334,56,-58,-26
0.275274,-7,-132,8326,12,-84,-45
0.275413,40,-123,8306,50,-58,31
0.275552,49,-149,8323,44,-71,-39
0.275692,4,-230,8369,56,-84,-39
0.27583,-9,-151,8284,31,-39,-7
0.27597,2,-131,8335,25,-58,-7
0.276109,21,-115,8389,38,-97,-13
0.276248,-16,-190,8326,75,-90,-70
0.276388,16,-139,8317,25,-71,5
0.276527,21,-130,8332,12,-58,-1
0.276667,65,-189,8329,88,-71,-32
0.276806,2,-179,8319,19,-52,-26
0.276945,-30,-160,8329,56,-84,-39
0.277084,21,-149,8342,44,-71,-1
0.277224,57,-191,8308,63,-46,-32
0.277363,5,-116,8347,-6,-58,-13
0.277502,-36,-166,8369,69,-71,-26
0.277642,2,-169,8305,69,-46,-20
0.277781,16,-150,8318,12,-77,-26
0.27792,-28,-154,8352,82,-84,-45
0.27806,5,-230,8299,6,-77,12
0.278199,-21,-174,8257,69,-39,-26
0.278338,66,-204,8297,50,-77,-39
0.278477,43,-110,8295,50,-77,-7
0.278617,72,-209,8290,38,-65,-13
0.278756,67,-123,8337,31,-77,-7
0.278895,37,-138,8342,69,-58,-39
0.279035,22,-188,8364,38,-58,-26
0.279175,-14,-152,8355,56,-77,-13
0.279313,-20,-134,8352,69,-58,-39
0.279453,10,-210,8353,38,-77,12
0.279592,-4,-180,8379,31,-65,-64
0.279731,76,-225,8362,63,-97,18
0.279871,83,-158,8352,63,-26,-32
0.28001,39,-179,8377,38,-77,-32
0.280149,55,-201,8367,44,-52,18
0.280288,47,-145,8316,75,-103,-45
0.280428,-18,-171,8351,19,-33,12
0.280567,-39,-152,8296,50,-77,-32
0.280709,52,-118,8314,69,-97,-20
0.280846,43,-142,8311,31,-20,-39
0.280986,-35,-193,8277,44,-90,24
0.281124,28,-136,8345,63,-58,-39
0.281263,28,-160,8331,44,-71,-20
0.281404,25,-157,8300,12,-71,-13
0.281542,-25,-174,8282,82,-58,-51
0.281681,20,-144,8294,31,-77,24
0.281821,44,-113,8333,56,-77,-45
0.28196,67,-133,8309,56,-58,-26
0.282099,9,-143,8286,-6,-77,31
0.282238,34,-188,8294,88,-84,-77
0.282379,39,-146,8327,75,-65,18
0.282518,39,-155,8357,19,-71,-58
0.282656,68,-164,8308,25,-58,31
0.282797,69,-123,8305,82,-90,-51
0.282935,-1,-151,8352,50,-33,12
0.283074,36,-156,8318,56,-71,-32
0.283214,26,-156,8308,38,-84,-32
0.283353,14,-210,8334,75,-33,5
0.283494,85,-136,8283,38,-97,-13
0.283632,40,-158,8309,25,-71,-39
0.283771,34,-107,8286,82,-65,-32
0.28391,38,-123,8248,0,-39,43
0.284051,-13,-99,8301,94,-71,-77
0.284189,-11,-165,8284,12,-65,-7
0.284328,18,-138,8298,63,-52,-13
0.284468,31,-132,8291,50,-77,-7
0.284607,72,-141,8320,19,-65,-39
0.284746,7,-175,8338,75,-103,-26
0.284886,13,-158,8262,0,-26,12
0.285025,34,-174,8267,75,-90,-26
0.285164,34,-148,8276,69,-65,-58
0.285303,11,-125,8266,38,-58,43
0.285444,32,-132,8262,38,-71,-58
0.285582,61,-136,8318,88,-84,-1
0.285722,36,-157,8293,-13,-39,-13
0.285862,-13,-170,8330,88,-90,-45
0.286,-15,-153,8340,44,-77,12
0.286139,3,-155,8330,50,-26,-51
0.286279,21,-149,8294,75,-65,24
0.286419,-10,-168,8337,38,-58,-32
0.286557,-51,-133,8305,31,-65,-26
0.286697,10,-91,8317,56,-65,-20
0.286836,40,-123,8304,63,-77,-7
0.286975,2,-151,8356,63,-65,-26
0.287115,18,-155,8291,63,-58,-13
0.287254,-36,-144,8310,31,-90,-32
0.287393,-12,-131,8320,31,-7,31
0.287532,40,-151,8287,56,-128,-96
0.287672,32,-204,8291,38,-20,43
0.287811,-19,-185,8305,69,-128,-32
0.28795,19,-111,8300,19,-20,-13
0.288089,3,-139,8344,69,-84,-32
0.288229,-34,-182,8356,94,-122,-20
0.288368,31,-158,8320,-6,-26,-1
0.288508,12,-165,8281,44,-65,-26
0.288647,6,-125,8275,88,-84,-20
0.288786,-8,-166,8329,0,-46,-7
0.288926,10,-132,8312,94,-71,-51
0.289065,74,-125,8290,6,-77,-13
0.289204,-50,-164,8276,63,-7,-13
0.289343,-47,-140,8290,69,-128,-13
0.289483,2,-115,8286,6,-14,-1
0.289622,-13,-127,8298,69,-109,-58
0.289762,20,-157,8372,0,-52,-1
0.289901,-31,-146,8301,107,-77,-20
0.29004,-43,-118,8324,19,-14,-7
0.290179,-32,-144,8265,50,-128,-26
0.290319,10,-133,8301,63,-58,-20
0.290458,19,-129,8312,44,-52,-64
0.290597,-29,-141,8339,38,-77,5
0.290736,-32,-140,8294,38,-58,-20
0.290876,17,-143,8331,38,-65,-20
0.291015,-9,-196,8274,69,-46,-26
0.291154,-26,-153,8319,44,-103,-20
0.291294,24,-193,8326,44,-33,-26
0.291433,26,-132,8334,31,-65,-1
0.291572,-4,-134,8364,50,-71,-39
0.291711,-24,-113,8318,88,-97,-45
0.291851,6,-92,8212,19,-20,31
0.29199,22,-157,8269,63,-90,-58
0.292129,-13,-121,8372,63,-52,-39
0.292269,-11,-166,8344,56,-90,12
0.292408,-48,-147,8304,69,-33,-7
0.292548,-32,-95,8285,0,-90,-51
0.292687,-12,-152,8298,94,-58,-1
0.292826,-33,-159,8286,69,-71,-39
0.292965,-1,-131,8338,25,-65,-20
0.293106,28,-169,8295,31,-71,-1
0.293244,35,-137,8286,63,-77,-26
0.293383,47,-114,8254,38,-46,-20
0.293523,29,-168,8246,75,-65,-58
0.293662,-28,-127,8245,44,-103,24
0.293802,-5,-105,8328,69,-26,-64
0.293941,34,-112,8292,25,-65,37
0.29408,-6,-138,8328,38,-90,-51
0.294219,-3,-159,8273,63,-46,-13
0.294364,47,-130,8319,31,-46,-1
0.294498,33,-134,8293,69,-109,-58
0.294637,16,-100,8273,56,-46,5
0.294776,34,-114,8280,19,-84,-58
0.294916,32,-113,8278,56,-33,-7
0.295055,48,-115,8235,-6,-77,-13
0.295194,1,-115,8311,69,-65,-26
0.295334,14,-75,8264,50,-71,-7
0.295473,-6,-105,8284,19,-58,-39
0.295612,14,-101,8261,94,-97,-32
0.295752,4,-99,8286,25,-52,12
0.295892,21,-126,8241,88,-65,-45
0.29603,-14,-149,8289,0,-122,-7
0.296169,-44,-140,8278,75,-1,18
0.296309,-60,-171,8297,56,-148,-89
0.29645,-17,-120,8249,0,18,37
0.296587,20,-68,8294,100,-103,-45
0.296727,41,-130,8275,12,-39,-7
0.296866,26,-118,8291,75,-97,-51
0.297007,6,-111,8283,19,-39,-1
0.297145,37,-108,8277,50,-46,-13
0.297284,12,-133,8218,82,-71,-32
0.297423,24,-118,8283,6,-58,-13
0.297563,-1,-140,8272,50,-58,-13
0.297702,25,-157,8246,69,-46,-13
0.297841,11,-116,8279,38,-128,-58
0.297981,17,-115,8311,38,-14,37
0.298121,80,-150,8278,63,-84,-51
0.298259,57,-126,8299,12,-71,-45
0.298399,46,-165,8300,75,-58,5
0.298538,41,-138,8322,31,-84,-32
0.298677,13,-134,8332,63,-39,5
0.298816,-4,-68,8320,44,-84,-39
0.298956,-22,-124,8323,38,-97,-32
0.299095,-13,-132,8269,56,-58,5
0.299234,34,-166,8299,19,-65,-39
0.299373,11,-142,8318,69,-71,-39
0.299513,9,-127,8286,31,-77,5
0.299652,16,-177,8315,44,-39,-20
0.299792,47,-128,8263,56,-97,-32
0.299931,2,-104,8270,63,-77,-26
0.30007,8,-108,8263,31,-52,-26
0.30021,30,-120,8291,25,-39,12
0.300349,18,-115,8284,63,-109,-20
0.300488,19,-149,8282,82,-71,-45
0.300627,12,-99,8312,56,-77,-26
0.300767,16,-146,8312,25,-39,-20
0.300907,38,-166,8231,12,-52,-13
0.301045,69,-142,8251,63,-77,18
0.301184,30,-130,8312,56,-77,-64
0.301324,40,-133,8278,44,-71,-32
0.301463,-11,-124,8300,25,-39,-1
0.301603,5,-126,8341,56,-109,5
0.301742,10,-121,8376,82,-39,-64
0.301881,14,-149,8342,0,-65,18
0.30202,8,-144,8326,44,-77,-39
0.30216,3,-151,8274,82,-77,-45
0.302299,-9,-137,8271,25,-46,-13
0.302438,-2,-143,8325,25,-84,-7
0.302578,-5,-164,8290,82,-65,-45
0.302717,-49,-115,8283,31,-77,-1
0.302857,-44,-180,8300,63,-71,-51
0.302996,1,-192,8329,56,-52,-1
0.303136,19,-124,8335,25,-77,-1
0.303275,-50,-168,8339,69,-39,-51
0.303415,28,-133,8341,63,-97,-7
0.303553,34,-140,8336,19,-39,-1
0.303692,16,-146,8339,82,-116,-45
0.303834,9,-155,8355,25,-39,-13
0.303971,5,-162,8294,50,-58,-7
0.304111,26,-197,8262,63,-109,-58
0.304249,-8,-183,8279,31,-39,18
0.30439,3,-187,8282,69,-58,-20
0.304528,5,-209,8318,31,-103,-32
0.304667,13,-127,8340,63,-33,-1
0.304807,-15,-135,8280,25,-71,-1
0.304946,5,-144,8345,69,-77,-26
0.305085,1,-122,8300,31,-58,-39
0.305225,15,-105,8327,88,-90,-20
0.305364,42,-116,8338,19,-58,-1
0.305503,42,-149,8234,38,-33,-45
0.305642,34,-138,8298,75,-84,-26
0.305782,30,-227,8310,0,-46,-26
0.305921,1,-195,8296,82,-71,-1
0.30606,52,-140,8289,25,-58,-20
0.3062,26,-151,8290,82,-97,-32
0.306339,27,-140,8256,-6,-39,-45
0.306478,46,-146,8341,94,-84,31
0.30662,5,-131,8313,38,-97,-64
0.306758,47,-194,8289,38,-39,-7
0.306896,7,-146,8335,56,-58,-7
0.307035,15,-140,8339,56,-84,-45
0.307177,-1,-124,8344,69,-58,-1
0.307314,33,-144,8304,-13,-46,-7
0.307454,43,-167,8279,113,-84,-64
0.307593,-22,-174,8302,6,-33,12
0.307734,68,-75,8310,25,-58,-20
0.307871,-29,-127,8323,94,-84,-26
0.308011,8,-123,8332,31,-39,-7
0.30815,-19,-139,8330,69,-97,-51
0.308289,-35,-176,8290,31,-77,5
0.308428,2,-137,8323,50,-20,-32
0.308568,-35,-102,8288,38,-97,5
0.308707,9,-100,8318,82,-77,-77
0.308847,1,-116,8311,0,-33,43
0.308986,2,-150,8266,82,-128,-83
0.309125,32,-99,8251,50,-26,31
0.309265,10,-118,8168,38,-71,-32
0.309404,-60,-171,8244,19,-58,-7
0.309543,19,-140,8301,107,-84,-70
0.309683,54,-127,8286,0,-65,24
0.309822,-10,-133,8320,44,-52,-51
0.309961,6,-147,8300,75,-84,-1
0.3101,-16,-79,8282,19,-52,-20
0.31024,-11,-120,8348,56,-109,-32
0.310379,-15,-144,8291,31,-46,-20
0.310518,-44,-130,8282,50,-39,5
0.310657,22,-125,8291,50,-71,-39
0.310799,-65,-126,8297,25,-97,-26
0.310938,-3,-188,8243,63,-39,-20
0.311075,-8,-207,8272,38,-58,-32
0.311215,26,-157,8288,38,-77,-7
0.311353,-15,-152,8310,82,-84,-26
0.311493,-20,-158,8300,25,-58,-26
0.311633,45,-133,8264,63,-52,12
0.311772,-6,-119,8280,25,-109,-39
0.311911,13,-115,8266,44,-46,-39
0.31205,-15,-98,8304,82,-84,-20
0.31219,42,-101,8315,12,-65,-1
0.31233,-24,-147,8279,75,-84,-39
0.312468,-32,-157,8311,44,-58,-26
0.312609,-25,-129,8318,75,-71,-13
0.312747,16,-101,8324,12,-84,5
0.312888,-51,-101,8286,63,-33,-39
0.313026,-53,-121,8246,25,-97,-45
0.313166,-19,-148,8281,6,-39,24
0.313304,-27,-130,8245,107,-116,-39
0.313444,36,-59,8228,19,-39,-32
0.313583,-9,-144,8276,19,-52,-1
0.313723,26,-169,8270,69,-116,-45
0.313862,30,-144,8295,12,-1,12
0.314001,7,-153,8364,56,-109,-39
0.31414,11,-169,8312,50,-71,-39
0.314281,-13,-166,8235,19,-46,18
0.314419,22,-40,8223,113,-90,-83
0.314558,38,-69,8278,0,-46,12
0.314698,29,-86,8317,56,-58,-13
0.314838,-22,-84,8255,56,-77,-32
0.314976,-1,-111,8296,19,-84,5
0.315116,-10,-111,8270,50,-46,-32
0.315255,-6,-98,8273,82,-122,-39
0.315394,-51,-98,8305,19,-7,5
0.315533,-34,-122,8249,63,-77,-32
0.315673,-31,-183,8276,31,-103,-13
0.315812,-1,-135,8261,63,-58,-32
0.315951,20,-134,8252,12,-77,-1
0.316091,6,-159,8272,63,-65,-45
0.31623,-18,-170,8263,38,-109,-1
0.316369,-9,-128,8219,50,-33,-7
0.316509,18,-138,8262,-13,-65,-32
0.316648,-11,-87,8244,75,-52,-20
0.316787,-26,-129,8299,44,-65,-7
0.316927,-6,-148,8230,82,-103,-51
0.317066,-57,-108,8260,-6,-33,31
0.317205,19,-115,8281,94,-116,-89
0.317345,23,-133,8297,56,-58,37
0.317484,30,-139,8296,6,-52,-26
0.317623,-34,-157,8278,69,-116,-51
0.317762,16,-154,8250,38,-65,5
0.317901,18,-153,8317,31,-39,-26
0.318041,-34,-144,8284,94,-97,-26
0.31818,17,-131,8264,12,-46,-13
0.31832,4,-100,8254,69,-58,-32
0.318459,-29,-94,8273,44,-122,-26
0.318598,9,-126,8274,-19,-26,-1
0.318738,24,-152,8250,132,-103,-64
0.318877,37,-68,8217,-25,-33,18
0.319016,54,-91,8280,107,-109,-45
0.319156,11,-76,8265,38,-46,-7
0.319295,35,-90,8245,12,-97,-13
0.319434,11,-127,8301,56,-46,-39
0.319573,22,-70,8292,56,-77,-20
0.319713,12,-101,8222,44,-84,-7
0.319852,27,-141,8263,50,-52,-39
0.319991,-9,-154,8261,75,-128,-39
0.320131,-27,-114,8276,-13,-1,43
0.32027,-7,-159,8291,100,-103,-77
0.320409,-55,-135,8251,-19,-71,12
0.320549,23,-135,8251,82,-97,-32
0.320688,40,-98,8297,31,-26,-1
0.320829,-1,-149,8221,38,-90,-32
0.320968,19,-77,8277,31,-52,31
0.321106,11,-157,8226,69,-77,-64
0.321245,-9,-130,8225,12,-39,18
0.321384,-9,-137,8308,88,-103,-77
0.321524,36,-159,8262,-13,-46,-1
0.321663,74,-113,8289,75,-65,-20
0.321802,36,-55,8280,56,-84,-26
0.321941,-27,-117,8238,6,-46,18
0.322081,-9,-122,8246,56,-58,-64
0.32222,20,-72,8204,38,-122,-13
0.322359,34,-123,8234,38,-58,-32
0.322499,37,-113,8223,38,-39,18
0.322639,-20,-137,8312,25,-58,-58
0.322778,17,-76,8291,75,-97,-7
0.322918,-23,-110,8282,63,-84,-51
0.323057,-32,-85,8225,0,-33,18
0.323195,34,-128,8240,63,-58,-26
0.323335,-24,-119,8251,31,-97,-45
0.323474,51,-165,8228,75,-71,-20
0.323615,-15,-171,8258,6,-52,5
0.323752,-35,-128,8292,44,-90,-45
0.323892,-36,-119,8288,69,-103,-26
0.324031,-12,-122,8322,0,-52,-13
0.324172,2,-127,8282,50,-58,-20
0.324311,16,-152,8288,56,-84,-13
0.324449,17,-131,8222,6,-39,-20
0.324589,31,-77,8227,88,-122,-51
0.324728,-25,-108,8298,-19,-39,5
0.324867,-10,-140,8316,75,-65,-13
0.325006,25,-101,8288,19,-65,-13
0.325145,12,-81,8285,38,-46,-45
0.325285,18,-109,8241,94,-103,-45
0.325424,12,-147,8299,-6,-39,-1
0.325565,-45,-172,8299,69,-84,-32
0.325703,18,-111,8280,-13,-52,-13
0.325842,61,-82,8265,69,-97,-26
0.325982,-2,-58,8286,50,-77,-13
0.326121,-36,-111,8279,25,-65,-32
0.32626,-35,-95,8285,38,-90,-7
0.326399,-3,-126,8275,31,-65,-7
0.326538,-12,-129,8300,56,-90,-39
0.326678,0,-88,8261,31,-33,-7
0.326817,-62,-105,8261,63,-103,-7
0.326957,-4,-87,8244,31,-65,-39
0.327096,28,-104,8289,12,-84,-26
0.327235,-42,-140,8287,56,-103,-13
0.327378,0,-143,8314,31,-46,-20
0.327514,15,-128,8310,31,-52,-1
0.327653,-90,-111,8314,69,-116,-64
0.327793,-7,-143,8276,12,-39,12
0.327932,-34,-172,8292,56,-103,-51
0.328071,-36,-177,8274,0,-71,5
0.328211,-23,-150,8277,44,-77,-58
0.32835,-48,-105,8268,56,-71,5
0.328489,-13,-117,8324,25,-84,-7
0.328628,43,-104,8296,50,-58,-70
0.328768,-39,-157,8301,31,-97,-1
0.328907,47,-89,8318,63,-77,-7
0.329046,10,-147,8298,6,-52,-20
0.329186,22,-134,8284,63,-90,-45
0.329325,-44,-120,8307,50,-58,18
0.329464,-31,-123,8239,19,-77,-64
0.329604,22,-94,8278,75,-128,-13
0.329743,-24,-82,8303,25,-33,-20
0.329882,1,-91,8379,12,-71,-7
0.330021,19,-114,8347,113,-116,-58
0.330161,-11,-131,8328,-25,-33,12
0.3303,23,-126,8284,19,-97,-26
0.330439,10,-153,8320,113,-97,-45
0.330579,-4,-137,8320,-6,-46,-20
0.330718,-33,-114,8332,44,-84,-7
0.330857,-4,-142,8284,31,-77,-32
0.330996,18,-162,8336,75,-90,-45
0.331136,-36,-111,8307,19,-90,-13
0.33128,-31,-140,8263,6,-77,5
0.331414,-5,-138,8321,82,-71,-45
0.331554,13,-178,8249,12,-77,-13
0.331693,-48,-140,8286,56,-65,-32
0.331832,43,-121,8234,44,-84,-26
0.331971,22,-166,8282,44,-109,-13
0.332111,12,-158,8247,6,-46,-13
0.33225,53,-98,8278,38,-52,-20
0.332389,65,-107,8293,50,-97,-64
0.332529,-11,-117,8322,25,-58,37
0.332668,35,-153,8322,50,-84,-58
0.332807,30,-114,8308,38,-77,-32
0.332948,26,-116,8316,12,-33,12
0.333087,2,-152,8298,38,-109,-7
0.333227,-7,-217,8293,19,-77,-26
0.333365,26,-146,8300,69,-65,-32
0.333504,46,-137,8350,12,-65,-51
0.333644,24,-189,8309,12,-84,12
0.333783,52,-164,8276,63,-58,-70
0.333922,30,-162,8256,31,-97,24
0.334061,49,-188,8319,50,-58,-70
0.334201,9,-183,8324,38,-90,5
0.33434,31,-159,8332,56,-58,-58
0.334479,27,-160,8325,12,-71,-1
0.334618,25,-171,8292,44,-90,5
0.334758,57,-197,8319,31,-65,-77
0.334897,96,-151,8350,31,-65,18
0.335037,31,-174,8282,38,-84,-26
0.335176,16,-146,8301,25,-84,-20
0.335315,70,-145,8269,50,-58,-39
0.335454,10,-122,8357,31,-109,-7
0.335594,29,-130,8329,31,-39,-32
0.335733,42,-149,8242,50,-103,-45
0.335872,48,-205,8331,38,-71,-7
0.336012,59,-201,8337,25,-52,-20
0.336151,53,-149,8343,19,-84,-26
0.33629,-24,-183,8325,38,-97,-39
0.33643,-2,-142,8314,31,-39,12
0.336569,53,-176,8331,69,-90,-64
0.336708,25,-194,8336,19,-58,18
0.336847,11,-192,8374,25,-77,-39
0.336987,-6,-168,8323,44,-52,-39
0.337126,16,-169,8390,50,-116,-20
0.337265,46,-193,8328,38,-65,-26
0.337405,-8,-119,8343,25,-65,-39
0.337544,40,-168,8337,19,-58,31
0.337683,84,-155,8359,69,-90,-58
0.337823,27,-158,8381,12,-77,-13
0.337962,16,-203,8355,63,-77,-26
0.338101,-35,-208,8290,38,-90,-32
0.338241,42,-164,8370,63,-26,18
0.33838,71,-162,8374,31,-103,-58
0.338519,28,-167,8354,31,-77,-7
0.338658,37,-190,8406,44,-77,-13
0.338798,27,-174,8342,50,-77,-51
0.338937,12,-113,8376,50,-58,-7
0.339076,24,-155,8328,-13,-46,-26
0.339216,-4,-220,8323,75,-122,-26
0.339355,29,-146,8342,38,-52,-7
0.339494,21,-192,8335,50,-26,-26
0.339634,44,-151,8305,50,-109,-20
0.339773,-45,-189,8343,31,-65,-26
0.339912,26,-168,8345,50,-33,-32
0.340052,49,-160,8350,69,-122,-7
0.340191,19,-153,8343,12,-46,12
0.34033,60,-134,8417,56,-77,-51
0.340469,0,-124,8364,31,-65,-13
0.340609,-51,-142,8404,50,-77,-32
0.340748,19,-159,8376,44,-46,-20
0.340887,14,-192,8339,63,-90,-32
0.341027,19,-219,8319,19,-58,-20
0.341166,-18,-208,8253,50,-77,-1
0.341305,55,-216,8325,38,-77,-32
0.341445,23,-165,8350,100,-90,-45
0.341584,22,-138,8332,-13,-46,24
0.341723,20,-189,8344,63,-77,-45
0.341863,31,-165,8325,69,-97,-20
0.342002,35,-149,8300,19,-7,-32
0.342141,28,-119,8330,31,-84,-26
0.34228,-4,-191,8292,75,-71,18
0.34242,36,-168,8304,25,-84,-45
0.342559,9,-103,8374,63,-46,-26
0.342698,-25,-141,8351,50,-97,-32
0.342838,11,-161,8329,31,-58,24
0.342977,-20,-160,8327,44,-65,-70
0.343116,-2,-189,8376,50,-90,-1
0.343256,14,-184,8292,25,-39,-20
0.343395,5,-173,8297,82,-109,-26
0.343534,-39,-159,8358,12,-65,-26
0.343674,12,-156,8319,94,-52,-26
0.343813,12,-171,8313,25,-109,-39
0.343952,39,-174,8336,38,-52,-20
0.344091,42,-131,8329,31,-46,5
0.344231,16,-79,8356,82,-77,-45
0.34437,-5,-144,8347,25,-71,-13
0.344509,10,-129,8324,69,-84,-45
0.344649,42,-180,8294,50,-71,5
0.344788,-15,-182,8324,31,-77,-20
0.344927,9,-120,8316,31,-52,-26
0.345067,-12,-121,8290,44,-71,-20
0.345206,-30,-134,8276,63,-77,-20
0.345345,11,-144,8328,38,-71,-32
0.345485,-13,-103,8355,38,-71,-20
0.345624,-23,-105,8345,38,-52,-13
0.345763,22,-140,8345,44,-77,-26
0.345902,22,-135,8342,12,-39,-45
0.346042,6,-72,8287,82,-97,24
0.346181,7,-141,8266,38,-58,-64
0.34632,-15,-100,8259,56,-58,24
0.34646,29,-117,8330,56,-97,-45
0.346599,26,-158,8304,25,-58,-1
0.346738,7,-119,8298,50,-77,-51
0.346878,39,-126,8302,38,-58,5
0.347017,9,-106,8327,44,-46,-32
0.347156,-3,-81,8310,31,-84,-32
0.347296,28,-143,8309,69,-77,-26
0.347435,-30,-92,8222,31,-97,-26
0.347574,-66,-96,8292,-6,-26,12
0.347713,0,-68,8298,82,-109,-45
0.347853,44,-144,8252,25,-52,12
0.347992,-13,-126,8262,88,-77,-32
0.348131,12,-136,8284,6,-71,-39
0.348271,41,-144,8296,56,-58,-13
0.34841,43,-140,8280,44,-77,-1
0.348549,32,-151,8285,50,-84,-39
0.348689,7,-143,8266,63,-97,-39
0.348828,-18,-123,8296,12,-1,24
0.348967,26,-128,8260,75,-128,-51
0.349107,28,-83,8262,19,-39,-20
0.349246,25,-88,8250,50,-71,18
0.349385,-49,-144,8297,69,-90,-58
0.349524,-10,-134,8266,25,-65,-1
0.349664,-32,-165,8272,19,-58,-51
0.349803,11,-111,8245,75,-97,-1
0.349942,-44,-105,8309,19,-90,-45
0.350082,11,-158,8332,69,-65,-20
0.350221,13,-108,8274,6,-46,24
0.35036,-13,-133,8323,69,-77,-96
0.3505,40,-88,8237,6,-84,37
0.350639,75,-138,8246,69,-77,-58
0.350778,-11,-113,8252,25,-39,-13
0.350918,-31,-104,8282,50,-97,-20
0.351057,-24,-118,8262,25,-46,-13
0.351196,44,-195,8276,56,-90,-51
0.351335,11,-173,8246,25,-33,5
0.351475,-45,-118,8300,50,-109,-45
0.351614,51,-198,8317,63,-26,-7
0.351753,-7,-118,8310,0,-71,-7
0.351893,-27,-125,8283,69,-84,-32
0.352032,-12,-214,8272,31,-65,-20
0.352171,11,-140,8326,50,-65,-26
0.352311,15,-109,8270,38,-90,5
0.35245,42,-133,8305,63,-65,-58
0.352589,-10,-182,8315,31,-58,-20
0.352729,24,-106,8316,38,-77,-1
0.352868,-16,-115,8296,38,-65,-51
0.353007,30,-146,8340,38,-97,-26
0.353146,-19,-198,8363,50,-46,-7
0.353286,12,-182,8341,56,-71,-20
0.353425,44,-139,8321,6,-58,-7
0.353564,-13,-150,8232,50,-84,-26
0.353704,22,-173,8351,38,-84,-39
0.353843,33,-132,8327,69,-84,-20
0.353982,25,-125,8304,6,-39,5
0.354122,46,-199,8326,82,-109,-13
0.354261,30,-214,8349,50,-71,-70
0.3544,42,-159,8348,-25,-46,31
0.35454,15,-127,8367,75,-58,-51
0.354679,41,-133,8329,44,-97,-20
0.354818,13,-108,8305,88,-58,-13
0.354957,64,-188,8320,-13,-84,-26
0.355097,-8,-189,8322,69,-52,-7
0.355236,74,-227,8335,38,-77,-58
0.355378,55,-139,8322,38,-52,-7
0.355515,48,-120,8316,31,-77,-7
0.355654,76,-116,8334,31,-71,12
0.355793,61,-131,8319,56,-65,-64
0.355933,47,-143,8321,50,-65,-1
0.356072,77,-162,8351,12,-58,-13
0.356211,46,-161,8297,50,-103,-32
0.356351,53,-176,8320,88,-77,-32
0.35649,-19,-132,8334,-6,-52,-1
0.356629,30,-110,8350,56,-65,-51
0.356771,16,-155,8331,56,-103,-7
0.356908,-8,-179,8348,19,-33,-7
0.357047,14,-195,8344,56,-109,-64
0.357188,15,-189,8352,25,-52,37
0.357326,8,-176,8355,38,-58,-39
0.357465,23,-140,8276,63,-90,-58
0.357604,-3,-140,8310,38,-39,18
0.357745,42,-187,8310,50,-84,-51
0.357883,32,-164,8298,25,-65,5
0.358022,17,-189,8375,38,-33,18
0.358162,0,-142,8350,63,-77,-89
0.358302,15,-178,8379,6,-71,18
0.35844,-25,-237,8373,69,-52,-32
0.35858,62,-177,8354,56,-65,-20
0.358721,62,-214,8376,12,-58,-26
0.35886,52,-163,8341,88,-84,-20
0.358997,-44,-159,8342,25,-39,-20
0.359137,38,-180,8360,50,-77,-7
0.359279,35,-148,8370,19,-46,-20
0.359415,17,-199,8334,75,-84,-20
0.359555,-4,-117,8319,56,-52,-20
0.359694,14,-148,8321,12,-52,-26
0.359834,6,-234,8348,82,-103,-13
0.359973,-17,-145,8381,50,-58,-32
0.360114,-18,-132,8339,38,-52,-20
0.360251,-16,-211,8365,50,-71,5
0.36039,-63,-144,8341,50,-58,-58
0.360531,27,-122,8314,75,-97,-13
0.360669,7,-199,8329,38,-52,-26
0.360809,14,-201,8304,50,-46,-1
0.360948,-5,-140,8303,38,-97,-20
0.361087,26,-128,8290,44,-33,-26
0.361227,-14,-180,8367,75,-84,-7
0.361366,-20,-159,8339,63,-97,-58
0.361506,29,-139,8267,12,-33,24
0.361644,-9,-136,8314,75,-77,-58
0.361784,-20,-150,8330,25,-71,-7
0.361923,4,-104,8289,69,-77,-51
0.362062,42,-127,8304,12,-58,18
0.362201,45,-195,8306,56,-90,-51
0.362341,-21,-118,8308,56,-58,24
0.36248,2,-178,8281,44,-58,-51
0.362619,16,-192,8321,31,-65,-13
0.362759,3,-143,8340,88,-103,-45
0.362898,-21,-164,8343,12,-26,-1
0.363037,33,-120,8346,82,-71,-32
0.363177,53,-153,8276,12,-90,-13
0.363316,18,-168,8265,63,-65,-20
0.363455,22,-154,8286,44,-71,-20
0.363594,12,-167,8283,82,-84,-32
0.363734,27,-124,8347,6,-39,-20
0.363873,40,-117,8296,82,-84,31
0.364013,18,-126,8326,6,-58,-64
0.364152,9,-92,8302,82,-90,12
0.364291,-14,-139,8293,31,-46,-39
0.364432,-5,-161,8298,44,-77,-13
0.36457,29,-154,8292,38,-77,-45
0.36471,48,-157,8353,44,-39,24
0.364848,0,-156,8333,50,-97,-64
0.364988,33,-109,8308,19,-52,-13
0.365127,-9,-126,8309,82,-65,-39
0.365267,-40,-158,8291,31,-58,24
0.365406,-21,-158,8350,6,-71,-39
0.365545,-28,-171,8310,100,-58,-26
0.365684,5,-138,8301,25,-58,-39
0.365825,1,-156,8269,0,-71,-20
0.365963,9,-105,8277,119,-84,-26
0.366102,-27,-110,8321,6,-58,-26
0.366242,-12,-176,8319,63,-58,-13
0.366381,-18,-163,8273,31,-39,-20
0.366521,12,-107,8265,56,-103,-39
0.366659,-35,-88,8277,12,-20,12
0.366799,13,-53,8269,88,-90,-39
0.36694,2,-125,8280,44,-33,-26
0.367077,10,-103,8316,69,-103,-39
0.367217,-13,-118,8288,19,-14,12
0.367357,9,-80,8261,56,-109,-39
0.367495,13,-97,8290,63,-52,-20
0.367635,28,-172,8284,31,-97,-26
0.367775,-28,-154,8262,56,-33,-13
0.367913,76,-114,8298,82,-103,-39
0.368054,35,-91,8276,0,-26,5
0.368192,40,-112,8295,56,-84,-32
0.368332,4,-119,8257,63,-58,-1
0.368471,-1,-138,8228,50,-90,-32
0.368611,-22,-113,8275,69,-71,-45
0.368749,17,-115,8235,19,-39,5
0.36889,2,-130,8228,50,-84,-51
0.36903,10,-130,8240,44,-71,-7
0.369168,-4,-95,8252,44,-90,-39
0.369306,-69,-99,8300,38,-52,5
0.369449,-43,-101,8293,50,-58,-32
0.369585,27,-112,8293,44,-103,-13
0.369724,-14,-70,8228,50,-39,-26
0.369863,-33,-110,8232,19,-65,-7
0.370003,-12,-148,8271,69,-58,-13
0.370142,-10,-131,8246,50,-84,-39
0.370282,-35,-72,8226,25,-46,-1
0.370421,-31,-127,8234,69,-84,-51
0.37056,-6,-137,8253,25,-65,18
0.370699,-8,-163,8258,63,-90,-39
0.370838,15,-124,8254,38,-71,-26
0.370979,-8,-123,8188,56,-52,-7
0.371117,-11,-86,8255,0,-84,-39
0.371257,4,-79,8310,94,-77,-1
0.371396,-7,-83,8290,44,-39,-32
0.371536,27,-99,8239,44,-97,-7
0.371675,26,-99,8250,50,-71,-26
0.371814,-14,-26,8298,38,-52,-26
0.371953,-3,-18,8246,31,-77,-26
0.372094,-5,-52,8207,50,-65,-26
0.372232,-45,-60,8187,44,-71,5
0.37237,-66,-123,8269,50,-84,-70
0.37251,-40,-174,8278,0,-33,31
0.372652,32,-77,8263,82,-103,-32
0.372789,-13,-79,8248,12,-46,-32
0.372928,22,-153,8279,50,-77,-20
0.373068,20,-160,8255,25,-90,-26
0.373207,-4,-152,8294,63,-71,-13
0.373346,-17,-100,8266,31,-65,-39
0.373486,-46,-85,8227,38,-71,-7
0.373625,17,-66,8193,50,-52,-20
0.373764,14,-82,8282,50,-128,-39
0.373903,23,-82,8257,31,-46,-20
0.374044,17,-79,8225,50,-39,-32
0.374182,-5,-119,8304,50,-109,-26
0.374321,-19,-74,8212,25,-46,-20
0.374461,-26,-99,8221,25,-84,-13
0.3746,-12,-106,8323,56,-84,-51
0.374741,-73,-66,8306,0,-58,12
0.374879,-44,-85,8224,94,-33,-26
0.375018,-44,-81,8239,31,-97,-20
0.375158,7,-103,8265,19,-84,-32
0.375297,33,-107,8281,50,-71,-13
0.375436,12,-107,8256,69,-97,-20
0.375575,7,-143,8263,-44,-1,-7
0.375714,-27,-87,8303,69,-109,-26
0.375854,-34,-99,8251,69,-65,-39
0.375993,-19,-119,8294,6,-71,5
0.376133,22,-158,8210,69,-90,-64
0.376272,8,-126,8231,12,-65,31
0.376411,-1,-147,8314,69,-65,-45
0.37655,-12,-152,8292,12,-97,-26
0.37669,18,-157,8297,63,-71,-39
0.376829,-20,-127,8274,6,-52,24
0.376968,15,-104,8293,63,-103,-64
0.377108,23,-104,8300,38,-77,-26
0.377247,23,-147,8296,25,-84,5
0.377386,8,-152,8288,6,-26,-26
0.377525,28,-123,8304,31,-116,-26
0.377665,86,-172,8299,82,-71,-39
0.377804,37,-148,8298,19,-33,-7
0.377943,39,-167,8281,44,-116,-39
0.378083,1,-123,8324,31,-71,-32
0.378222,37,-143,8283,38,-46,-1
0.378361,-9,-204,8323,38,-103,-32
0.378501,-1,-204,8275,44,-46,-13
0.37864,-7,-170,8296,25,-77,-32
0.37878,64,-153,8301,38,-77,-26
0.37892,38,-155,8332,19,-46,-32
0.379058,10,-113,8354,88,-116,-7
0.379197,0,-143,8296,-6,-65,-20
0.379337,25,-146,8320,38,-33,-20
0.379476,21,-186,8353,63,-97,-32
0.379615,23,-143,8396,6,-84,12
0.379754,64,-112,8344,63,-58,-45
0.379894,8,-141,8300,56,-65,-39
0.380033,45,-141,8347,0,-58,12
0.380172,57,-107,8301,82,-103,-45
0.380311,36,-164,8373,19,-84,-7
0.380451,11,-161,8358,50,-46,-13
0.380591,-11,-198,8362,31,-84,-26
0.38073,-3,-157,8350,50,-84,-26
0.38087,-19,-131,8350,56,-52,-13
0.381008,-38,-180,8351,38,-46,-32
0.381147,8,-128,8354,19,-84,-39
0.381287,-5,-185,8357,56,-71,-20
0.381425,44,-143,8307,19,-71,-1
0.381565,18,-171,8339,63,-84,-51
0.381705,17,-150,8363,25,-39,-7
0.381844,17,-142,8317,38,-97,-58
0.381983,-10,-145,8360,38,-58,-20
0.382124,-21,-139,8334,50,-77,-13
0.382262,36,-187,8293,19,-58,-20
0.382401,-37,-166,8351,69,-77,-45
0.382541,23,-170,8265,0,-52,-7
0.38268,0,-189,8280,38,-84,12
0.382819,42,-205,8305,38,-109,-70
0.382959,63,-166,8300,44,-7,12
0.383098,38,-180,8339,19,-97,5
0.383239,58,-180,8410,82,-77,-83
0.38338,21,-179,8342,19,-77,18
0.383516,74,-172,8314,31,-71,-20
0.383657,42,-148,8364,25,-84,-51
0.383795,-10,-163,8327,44,-14,5
0.383934,36,-156,8329,44,-116,-39
0.384073,71,-129,8311,56,-33,-45
0.384213,59,-109,8296,12,-65,31
0.384352,37,-170,8315,56,-77,-77
0.384491,18,-164,8308,63,-58,5
0.384631,-8,-176,8291,31,-84,-32
0.384769,1,-139,8357,31,-52,-32
0.384909,-16,-149,8326,63,-97,-32
0.385048,-4,-203,8306,0,-46,5
0.385187,28,-127,8307,69,-97,-1
0.385327,30,-120,8317,25,-65,-70
0.385466,55,-115,8328,12,-77,24
0.385605,6,-158,8325,82,-52,-70
0.385745,50,-94,8345,25,-84,31
0.385884,-11,-181,8320,12,-77,-32
0.386023,-10,-97,8320,50,-58,-7
0.386164,3,-151,8274,25,-103,-45
0.386302,4,-168,8320,63,-58,-39
0.386441,-16,-154,8275,50,-90,5
0.38658,27,-185,8319,44,-52,-20
0.38672,47,-118,8311,31,-84,-13
0.386859,3,-141,8273,63,-71,-58
0.386999,46,-138,8261,-13,-46,24
0.387137,-24,-149,8258,94,-77,-64
0.387277,24,-154,8293,44,-90,5
0.387416,-45,-117,8313,0,-52,-39
0.387556,-4,-133,8248,63,-77,-32
0.387695,-21,-129,8301,63,-116,-20
0.387834,-27,-164,8220,44,-20,-26
0.387974,22,-72,8255,19,-77,12
0.388113,20,-170,8327,44,-65,-20
0.388252,-16,-133,8305,38,-90,-70
0.388392,-6,-140,8267,50,-71,18
0.388531,19,-169,8296,12,-52,-1
0.38867,8,-131,8237,56,-103,-64
0.38881,6,-104,8232,50,-46,5
0.388949,18,-118,8257,12,-52,-13
0.389088,-16,-112,8272,94,-109,-51
0.389227,18,-128,8259,19,-65,12
0.389367,27,-110,8240,31,-71,-51
0.389506,-12,-145,8240,75,-77,-13
0.389645,-47,-153,8240,-6,-58,-20
0.389784,21,-98,8291,69,-90,-26
0.389924,-27,-137,8303,38,-71,-51
0.390063,-5,-112,8222,31,-77,-1
0.390202,21,-155,8237,12,-39,-13
0.390342,6,-145,8250,44,-103,-32
0.390481,-14,-153,8260,69,-90,-20
0.39062,-10,-116,8243,12,-77,-51
0.390761,-16,-148,8308,94,-65,18
0.390899,7,-135,8285,19,-52,-32
0.391039,-13,-166,8271,44,-84,-26
0.391178,-1,-56,8231,25,-71,-32
0.391317,-27,-92,8193,44,-71,-1
0.391458,-5,-124,8204,12,-46,-20
0.391596,-20,-175,8224,63,-116,-39
0.391735,-22,-99,8301,31,-77,-7
0.391874,34,-87,8286,38,-52,-26
0.392013,-2,-127,8270,50,-77,-20
0.392154,4,-102,8326,38,-84,-39
0.392292,32,-98,8240,25,-58,-26
0.392435,28,-140,8180,25,-58,24
0.392571,39,-105,8216,44,-84,-77
0.392711,-11,-105,8297,31,-26,-7
0.392849,4,-91,8272,19,-103,-51
0.392989,-24,-106,8268,56,-39,5
0.393128,31,-108,8220,56,-103,-32
0.393267,4,-104,8243,6,-65,-7
0.393407,-4,-74,8262,44,-71,-58
0.393546,23,-109,8241,-19,-39,31
0.393685,21,-106,8301,107,-116,-45
0.393824,60,-62,8267,-13,-84,-39
0.393964,-7,-139,8317,94,-58,-32
0.394103,13,-135,8303,0,-39,12
0.394242,21,-89,8230,44,-122,-51
0.394382,-35,-75,8318,19,-58,-13
0.394522,-21,-132,8274,44,-77,-26
0.39466,-46,-121,8266,38,-33,12
0.3948,0,-54,8299,50,-116,-70
0.394939,-18,-78,8262,50,-90,-32
0.395078,22,-148,8304,25,-20,-1
0.39522,-51,-81,8314,44,-90,-20
0.395357,-34,-108,8337,19,-52,-51
0.395496,-10,-112,8310,50,-71,18
0.395635,11,-85,8218,38,-58,-58
0.395775,-42,-102,8256,50,-109,-26
0.395914,24,-124,8371,25,-58,5
0.396053,18,-130,8329,50,-90,-45
0.396193,5,-141,8336,-6,-52,5
0.396332,21,-107,8306,56,-97,-26
0.396471,-8,-169,8341,44,-84,-26
0.396613,-7,-156,8276,6,-65,-39
0.39675,-26,-129,8323,82,-65,-7
0.396889,-23,-145,8315,12,-90,-13
0.397029,26,-135,8283,75,-84,-64
0.397168,-40,-144,8253,6,-84,-13
0.397307,0,-172,8282,19,-71,-13
0.397447,0,-169,8308,63,-58,-1
0.397586,15,-192,8365,6,-77,-13
0.397725,-25,-166,8329,75,-84,-45
0.397865,57,-131,8336,-6,-33,-20
0.398004,18,-179,8290,69,-109,5
0.398143,9,-162,8299,6,-46,-39
0.398283,-15,-132,8328,63,-128,-32
0.398422,60,-162,8325,-6,-33,5
0.398561,13,-176,8292,100,-77,-32
0.3987,-14,-130,8293,0,-46,-7
0.398841,78,-118,8316,69,-109,-32
0.39898,26,-138,8301,31,-39,-51
0.399119,27,-122,8327,-25,-90,-1
0.399258,30,-143,8351,94,-77,-13
0.399397,-26,-180,8351,19,-46,-13
0.399536,-7,-91,8364,50,-116,-39
0.399675,-39,-127,8374,31,-58,-1
0.399815,-30,-143,8338,38,-52,-51
0.399954,-5,-161,8348,38,-71,-7
0.400093,12,-134,8375,12,-116,-20
0.400233,-13,-154,8328,75,-52,-45
0.400371,-45,-169,8336,12,-77,5
0.400511,21,-190,8291,75,-77,-70
0.400651,72,-144,8305,-19,-71,24
0.40079,46,-120,8329,56,-97,-39
0.400931,43,-165,8308,56,-46,-13
0.401069,9,-184,8347,6,-71,-45
0.40121,-7,-107,8377,63,-52,-1
0.401348,27,-181,8327,31,-84,-13
0.401488,25,-161,8364,50,-97,-20
0.401626,15,-101,8327,38,-39,-20
0.401765,-60,-148,8262,44,-84,-39
0.401904,50,-154,8282,25,-65,-39
0.402044,20,-152,8266,56,-39,5
0.402185,-36,-143,8293,38,-109,-20
0.402324,0,-132,8315,38,-65,-58
0.402462,27,-158,8338,25,-20,12
0.402601,41,-163,8328,69,-122,-39
0.402741,-6,-142,8288,25,-71,-32
0.40288,-7,-118,8270,50,-65,-13
0.403019,-34,-104,8266,25,-65,-20
0.403158,11,-166,8301,25,-97,-39
0.403298,-13,-159,8308,69,-52,-20
0.403437,23,-128,8281,19,-90,-13
0.403576,-34,-132,8251,69,-52,-20
0.403717,-13,-110,8290,31,-90,-32
0.403855,54,-99,8322,31,-46,12
0.403994,34,-155,8328,63,-97,-64
0.404133,27,-103,8276,25,-58,5
0.40428,14,-116,8297,25,-71,-32
0.404412,3,-162,8252,63,-77,-13
0.404551,-37,-131,8255,56,-71,-39
0.404692,-48,-135,8249,6,-71,-26
0.40483,0,-167,8269,44,-71,12
0.404969,-39,-126,8240,31,-58,-77
0.40511,44,-122,8277,19,-90,5
0.405248,-17,-86,8325,88,-58,-39
0.405387,16,-149,8274,6,-77,-32
0.405527,11,-141,8258,56,-97,-26
0.405666,-5,-95,8352,38,-52,-7
0.405805,-12,-125,8298,38,-71,-26
0.405945,-53,-138,8287,56,-58,-26
0.406086,11,-90,8259,25,-90,-13
0.406223,-2,-89,8237,50,-71,-26
0.406362,-8,-130,8245,25,-58,12
0.406502,32,-131,8251,44,-84,-64
0.406641,37,-143,8221,31,-77,-1
0.40678,46,-107,8237,56,-52,-45
0.40692,-49,-113,8260,38,-84,24
0.407059,26,-94,8286,38,-65,-39
0.407198,35,-131,8271,50,-97,-39
0.407338,22,-155,8256,44,-71,-13
0.407477,-12,-144,8246,12,-71,18
0.407616,-11,-96,8283,82,-97,-89
0.407756,21,-134,8246,-31,-71,-13
0.407895,-4,-93,8312,56,-84,-20
0.408034,-40,-134,8285,44,-71,12
0.408173,-3,-116,8260,6,-77,-32
0.408313,29,-124,8191,56,-84,-20
0.408452,22,-117,8223,19,-84,-32
0.408591,11,-81,8218,75,-58,-1
0.40873,11,-56,8245,-6,-97,-26
0.408871,-27,-108,8265,56,-65,-58
0.409009,-20,-105,8272,-19,-84,18
0.409149,49,-74,8272,94,-71,-39
0.409288,-8,-77,8319,31,-65,-26
0.409427,8,-128,8245,38,-84,-1
0.409569,42,-139,8259,19,-71,-51
0.409706,52,-127,8240,31,-58,-26
0.409845,10,-108,8195,38,-109,-32
0.409984,-21,-117,8212,31,-58,5
0.410123,8,-157,8289,50,-77,-32
0.410263,78,-125,8255,44,-122,-32
0.410402,5,-134,8245,56,-39,-58
0.410542,-12,-114,8301,38,-65,37
0.410681,18,-58,8254,0,-65,-58
0.410823,50,-81,8273,19,-52,24
0.410959,-24,-134,8284,82,-128,-83
0.411099,26,-97,8260,25,-39,-13
0.411238,-29,-153,8259,50,-77,12
0.411381,-17,-148,8244,0,-52,-51
0.411517,-27,-138,8289,82,-103,-39
0.411656,-18,-131,8274,12,-52,-20
0.411795,-38,-126,8304,44,-65,-7
0.411935,33,-95,8265,31,-52,-26
0.412074,23,-160,8222,63,-116,-32
0.412215,41,-145,8220,-6,-58,-7
0.412352,21,-142,8286,75,-71,-70
0.412493,-60,-150,8314,12,-97,5
0.412631,-42,-159,8304,38,-33,-32
0.412771,31,-127,8288,38,-116,-20
0.41291,-2,-167,8283,6,-7,-7
0.413049,16,-133,8271,56,-122,-77
0.413189,28,-172,8315,31,-84,24
0.413328,1,-167,8308,56,-52,-51
0.413467,18,-135,8356,38,-97,-26
0.413606,-10,-105,8303,19,-52,-20
0.413746,11,-118,8278,25,-71,-26
0.413885,37,-159,8246,50,-97,-26
0.414024,10,-192,8315,38,-71,-1
0.414164,0,-161,8302,6,-52,-51
0.414303,19,-170,8255,69,-97,-13
0.414442,50,-113,8282,19,-52,-1
0.414583,36,-163,8310,50,-122,-32
0.414721,-6,-136,8300,38,-52,-51
0.41486,-4,-132,8304,31,-77,5
0.414999,42,-161,8340,31,-84,-26
0.415139,31,-175,8304,25,-52,-26
0.415278,26,-148,8275,56,-103,-26
0.415417,36,-114,8293,44,-52,-32
0.415557,43,-137,8346,6,-103,-7
0.415696,43,-137,8326,56,-84,-39
0.415835,13,-118,8327,31,-65,-51
0.415975,13,-153,8378,25,-71,18
0.416114,25,-155,8336,50,-90,-64
0.416253,71,-166,8309,25,-71,-7
0.416392,3,-104,8309,50,-71,-20
0.416532,32,-116,8332,31,-77,-13
0.416671,35,-158,8348,88,-109,-70
0.41681,-4,-142,8328,-31,-52,18
0.41695,7,-144,8326,75,-90,-51
0.417089,31,-118,8318,31,-52,12
0.417229,22,-199,8322,0,-71,-51
0.417368,-13,-148,8301,69,-109,5
0.417507,43,-173,8324,38,-52,-45
0.417646,14,-130,8303,0,-77,-7
0.417786,13,-136,8365,56,-90,-39
0.417925,-12,-153,8328,50,-58,-7
0.418064,-31,-146,8338,12,-103,-39
0.418203,16,-174,8301,50,-65,5
0.418343,-9,-136,8355,25,-77,-58
0.418482,-5,-171,8418,63,-77,-7
0.418622,-4,-176,8328,50,-97,-58
0.418763,-31,-109,8286,-6,-46,24
0.4189,-38,-141,8364,56,-103,-51
0.419039,61,-250,8353,50,-52,-1
0.419179,10,-244,8364,31,-103,-7
0.419318,23,-182,8339,25,-52,-45
0.419458,6,-174,8340,82,-84,-39
0.419597,34,-146,8294,0,-71,-32
0.419736,33,-137,8288,44,-58,24
0.419875,44,-140,8333,44,-71,-32
0.420014,20,-144,8288,56,-77,-51
0.420154,20,-124,8289,6,-84,18
0.420293,44,-175,8325,69,-77,-45
0.420432,-27,-144,8366,19,-71,-7
0.420572,-42,-185,8384,38,-84,-39
0.420711,44,-124,8328,25,-52,-20
0.420851,20,-106,8313,50,-71,-7
0.42099,6,-164,8308,50,-90,-39
0.42113,5,-162,8330,50,-77,-39
0.421271,43,-143,8303,50,-58,-26
0.421408,35,-141,8298,-6,-71,18
0.421547,12,-132,8346,63,-77,-39
0.421686,-8,-123,8323,38,-90,-39
0.421825,61,-172,8360,-13,-20,37
0.421965,6,-175,8313,94,-135,-70
0.422106,-3,-164,8330,56,-65,5
0.422247,35,-174,8329,0,-58,-45
0.422383,-5,-157,8298,6,-33,12
0.422522,13,-137,8310,113,-84,-58
0.422662,-4,-161,8274,19,-128,-58
0.422801,45,-114,8315,44,6,18
0.42294,27,-136,8302,25,-128,-32
0.423079,4,-205,8292,63,-39,-13
0.423218,-21,-178,8269,31,-65,-26
0.423358,-44,-185,8287,44,-103,-39
0.423497,20,-164,8341,44,-46,5
0.423637,-7,-148,8295,50,-84,-64
0.423776,0,-133,8330,-19,-52,31
0.423915,13,-112,8326,94,-109,-45
0.424054,22,-123,8335,-6,-65,-26
0.424194,-6,-128,8294,50,-58,5
0.424333,40,-128,8315,38,-84,-39
0.424472,-4,-186,8296,94,-97,-26
0.424612,-65,-204,8293,0,-52,-26
0.424751,0,-179,8330,31,-71,-20
0.42489,39,-134,8271,82,-90,-13
0.42503,-12,-157,8265,12,-46,-1
0.425169,-31,-139,8283,50,-97,-70
0.425308,-74,-162,8316,25,-65,-7
0.425448,14,-118,8298,50,-52,-1
0.425587,38,-124,8334,25,-97,-13
0.425726,21,-146,8300,56,-71,-51
0.425866,80,-146,8316,19,-77,-7
0.426005,41,-160,8336,38,-58,-26
0.426144,52,-142,8311,38,-84,-26
0.426284,-50,-174,8242,31,-65,12
0.426423,-40,-134,8305,50,-58,-58
0.426562,-4,-162,8319,31,-122,-26
0.426701,35,-159,8295,50,-52,5
0.426841,25,-135,8326,12,-77,-51
0.42698,33,-158,8301,75,-52,-32
0.427119,-24,-183,8285,12,-77,12
0.427259,-20,-161,8258,56,-90,-32
0.427398,-1,-141,8290,31,-65,-51
0.427537,-36,-117,8221,6,-52,18
0.427677,-19,-155,8273,38,-77,-39
0.427816,12,-130,8264,44,-71,-26
0.427955,-27,-202,8270,31,-71,-32
0.428095,1,-171,8308,56,-97,-7
0.428234,-22,-152,8366,-25,-20,5
0.428373,-30,-148,8331,113,-97,-64
0.428512,-1,-170,8326,-19,-90,12
0.428652,18,-124,8332,56,-20,-13
0.428791,-15,-135,8317,38,-109,-26
0.428932,67,-129,8332,63,-58,-39
0.429069,8,-85,8303,6,-97,-32
0.429209,25,-129,8314,56,-77,-1
0.429348,7,-206,8276,6,-33,-13
0.429487,22,-111,8283,100,-97,-64
0.429627,5,-140,8327,12,-77,18
0.429768,27,-162,8314,38,-52,-39
0.429905,75,-99,8316,56,-84,-32
0.430044,26,-186,8259,50,-84,12
0.430184,21,-177,8302,56,-109,-64
0.430323,-52,-111,8290,25,-20,5
0.430462,-1,-145,8307,44,-116,-32
0.430602,-16,-159,8346,63,-65,-26
0.430741,8,-132,8320,44,-33,-26
0.430881,37,-96,8332,6,-116,-1
0.431021,-16,-130,8326,44,-39,-20
0.431159,65,-143,8301,31,-116,-39
0.431298,50,-93,8312,44,-52,-13
0.431438,-32,-139,8348,44,-71,-26
0.431577,36,-140,8332,31,-77,-32
0.431716,39,-202,8318,63,-71,-1
0.431856,9,-158,8310,12,-65,-7
0.431995,10,-160,8375,50,-71,-58
0.432134,-2,-148,8337,44,-109,-20
0.432274,18,-156,8303,44,-39,5
0.432413,-28,-152,8291,38,-116,-64
0.432552,-14,-134,8382,25,-33,18
0.432691,18,-153,8352,75,-109,-77
0.432831,43,-203,8323,50,-39,12
0.43297,-14,-214,8280,6,-97,5
0.433109,6,-183,8308,63,-65,-1
0.433249,41,-172,8280,19,-65,-58
0.433388,-14,-154,8281,63,-84,12
0.433528,14,-183,8342,6,-65,-51
0.433667,-13,-146,8381,69,-116,-32
0.433806,11,-97,8295,25,-26,5
0.433945,-10,-154,8292,56,-103,-39
0.434085,-32,-156,8335,44,-65,-32
0.434224,-22,-171,8331,44,-71,5
0.434363,-11,-228,8347,44,-84,-64
0.434503,28,-158,8310,19,-103,12
0.434642,16,-217,8296,56,-33,-32
0.434781,28,-182,8292,56,-116,-26
0.43492,-3,-135,8313,31,-58,-32
0.43506,34,-154,8334,-6,-46,5
0.435199,26,-176,8386,100,-103,-70
0.435338,-18,-99,8352,12,-39,5
0.435478,96,-165,8323,31,-77,-1
0.435617,35,-193,8332,56,-71,-39
0.435756,12,-119,8306,19,-71,-13
0.435896,-35,-151,8354,75,-77,-32
0.436035,-6,-148,8326,6,-46,-1
0.436174,49,-128,8288,56,-97,-32
0.436313,21,-120,8320,38,-84,-7
0.436453,12,-167,8349,38,-90,-26
0.436592,45,-138,8323,31,-39,-39
0.436731,26,-150,8303,38,-71,-26
0.436871,34,-151,8368,38,-71,-20
0.43701,-8,-184,8333,69,-103,-26
0.437149,-22,-136,8279,0,-65,-13
0.437289,1,-180,8266,56,-58,-26
0.437428,50,-138,8349,50,-77,-39
0.437567,-8,-164,8318,6,-39,-7
0.437707,16,-130,8284,75,-109,-45
0.437846,26,-172,8295,44,-1,-1
0.437985,48,-130,8345,19,-103,-32
0.438124,8,-90,8329,63,-65,-26
0.438264,45,-180,8260,56,-97,-20
0.438403,11,-136,8299,25,-52,-7
0.438542,17,-151,8338,50,-90,-26
0.438682,66,-198,8305,50,-84,-13
0.438821,3,-178,8315,25,-46,-13
0.43896,31,-154,8275,56,-90,-13
0.4391,35,-136,8321,6,-65,-70
0.439239,2,-162,8337,69,-77,37
0.439378,18,-168,8281,19,-77,-64
0.439518,9,-197,8371,63,-71,-20
0.439657,-7,-141,8257,38,-52,24
0.439796,41,-129,8278,50,-77,-70
0.439935,-22,-180,8321,12,-77,5
0.440075,19,-90,8290,63,-90,5
0.440214,-15,-115,8326,25,-65,-70
0.440353,-7,-199,8331,38,-58,5
0.440493,-14,-170,8328,38,-65,-32
0.440632,18,-160,8306,50,-77,5
0.440771,30,-116,8299,31,-84,-58
0.440911,31,-198,8309,56,-65,-13
0.44105,-9,-187,8333,38,-65,-1
0.441189,44,-162,8309,31,-58,-39
0.441329,76,-120,8279,44,-77,12
0.441468,10,-110,8319,69,-71,-77
0.441607,10,-156,8285,56,-97,-26
0.441747,1,-194,8320,31,-14,24
0.441886,-6,-146,8308,63,-97,-58
0.442025,-64,-95,8336,25,-52,-26
0.442164,27,-120,8301,44,-65,24
0.442304,33,-128,8288,31,-71,-70
0.442443,57,-156,8278,44,-77,-7
0.442582,2,-118,8317,44,-33,-1
0.442722,12,-62,8307,44,-97,-51
0.442861,-3,-108,8303,25,-58,24
0.443,18,-142,8281,63,-77,-70
0.44314,6,-185,8260,31,-39,5
0.443279,-36,-143,8298,38,-116,-45
0.443418,-7,-144,8322,75,-84,-1
0.443558,23,-163,8262,-13,-33,-13
0.443697,-37,-149,8384,100,-109,-51
0.443836,-20,-186,8318,-6,-52,-1
0.443976,-5,-134,8279,69,-84,-20
0.444115,10,-174,8308,50,-46,-20
0.444254,23,-209,8342,31,-77,-13
0.444393,38,-178,8278,44,-71,-26
0.444533,16,-144,8276,50,-84,-39
0.444672,9,-139,8337,25,-52,5
0.444811,-1,-139,8299,50,-84,-32
0.444951,-55,-175,8262,25,-71,-39
0.44509,46,-187,8280,63,-65,12
0.445229,62,-166,8320,44,-90,-58
0.445369,26,-134,8361,19,-46,-1
0.445508,-2,-161,8250,75,-90,-26
0.445647,39,-120,8279,-13,-20,12
0.445786,8,-118,8286,75,-122,-58
0.445926,-19,-132,8298,56,-71,5
0.446065,12,-176,8323,50,-52,-32
0.446204,54,-108,8287,19,-58,-51
0.446344,-10,-147,8313,50,-90,18
0.446483,10,-121,8359,31,-90,-64
0.446622,19,-132,8329,38,-20,-1
0.446762,4,-112,8287,75,-103,-20
0.446901,74,-119,8317,6,-65,-64
0.44704,10,-192,8304,75,-65,-7
0.44718,-32,-143,8316,31,-84,5
0.447319,12,-101,8318,38,-52,-64
0.447458,-18,-144,8286,12,-65,24
0.447597,59,-151,8294,113,-103,-58
0.447737,19,-113,8304,-6,-52,12
0.447876,35,-144,8300,75,-109,-96
0.448015,-11,-138,8284,6,-46,24
0.448155,36,-135,8346,25,-65,-13
0.448294,-18,-132,8301,50,-77,-32
0.448433,35,-155,8294,82,-109,-13
0.448573,91,-138,8298,-6,-39,-7
0.448712,30,-99,8290,107,-109,-58
0.448851,31,-107,8295,6,-39,18
0.448991,-9,-79,8293,38,-103,-51
0.44913,46,-127,8288,31,-52,-20
0.449269,58,-92,8370,69,-77,5
0.449408,1,-89,8330,31,-58,-45
0.449548,17,-159,8324,88,-103,5
0.449687,-19,-112,8276,6,-71,-45
0.449826,6,-175,8343,38,-46,-7
0.449966,27,-195,8358,31,-84,-32
0.450105,19,-142,8354,50,-52,24
0.450244,1,-167,8363,44,-65,-64
0.450384,10,-131,8323,31,-97,-13
0.450523,31,-149,8307,63,-39,-7
0.450662,12,-206,8291,25,-84,-39
0.450802,-22,-197,8323,25,-77,-7
0.450941,40,-162,8323,69,-77,-32
0.45108,58,-169,8331,25,-65,5
0.451219,27,-159,8342,69,-65,-20
0.451359,28,-121,8309,56,-90,-39
0.451498,41,-193,8313,19,-77,-1
0.451637,24,-163,8318,6,-46,-32
0.451777,-35,-169,8320,100,-90,-20
0.451916,17,-161,8308,25,-52,-13
0.452055,-7,-203,8362,100,-77,-45
0.452195,56,-198,8360,6,-65,12
0.452334,25,-192,8291,44,-77,-39
0.452473,-17,-159,8332,44,-52,-26
0.452613,4,-114,8327,50,-97,5
0.452752,69,-177,8329,31,-58,-58
0.452891,-23,-200,8330,56,-71,5
0.45303,8,-139,8300,38,-65,-39
0.45317,-4,-171,8317,38,-65,-1
0.453309,11,-170,8308,56,-109,-58
0.453448,-22,-181,8287,50,-33,5
0.453588,3,-142,8317,12,-84,-20
0.453727,-20,-168,8287,69,-58,-45
0.453866,39,-180,8335,38,-84,-1
0.454006,40,-208,8343,50,-90,-51
0.454145,47,-183,8279,56,-84,5
0.454284,70,-154,8286,12,-58,-26
0.454424,70,-114,8254,56,-46,-39
0.454563,25,-188,8327,63,-84,-1
0.454702,-14,-130,8343,38,-77,-20
0.454841,-7,-99,8302,69,-97,-39
0.454981,63,-140,8359,0,-58,5
0.45512,-26,-179,8391,75,-71,-32
0.455259,15,-118,8291,-6,-39,-1
0.455399,17,-147,8255,94,-128,-64
0.455538,14,-201,8284,31,-33,18
0.455677,38,-160,8283,69,-90,-32
0.455817,35,-199,8338,12,-39,-7
0.455956,-5,-190,8359,31,-84,-45
0.456095,27,-126,8288,25,-58,-7
0.456235,48,-102,8325,69,-65,-13
0.456378,-4,-157,8291,38,-77,-32
0.456513,24,-150,8276,63,-65,-32
0.456652,49,-193,8254,31,-65,12
0.456792,55,-164,8348,0,-65,-20
0.456931,45,-153,8314,107,-71,-58
0.45707,14,-136,8262,19,-65,-1
0.45721,32,-168,8296,31,-52,-20
0.457349,30,-157,8318,94,-97,-51
0.457488,58,-152,8265,19,-46,31
0.457628,20,-133,8310,38,-84,-58
0.457769,5,-159,8303,25,-65,-32
0.457906,34,-134,8283,38,-71,37
0.458046,35,-102,8312,82,-116,-96
0.458185,11,-132,8302,19,-46,12
0.458324,24,-127,8298,75,-26,5
0.458463,-19,-176,8354,-6,-109,-51
0.458606,-6,-134,8317,82,-77,5
0.458742,-41,-116,8291,38,-46,-58
0.458881,23,-153,8298,19,-71,31
0.459023,0,-160,8300,63,-77,-58
0.45916,57,-99,8311,63,-58,-1
0.459299,-3,-155,8270,0,-46,-13
0.459439,22,-147,8283,88,-90,-45
0.459578,8,-128,8262,12,-46,-7
0.459717,-11,-153,8269,31,-84,-26
0.459857,43,-174,8342,56,-65,-20
0.459998,11,-152,8292,38,-33,24
0.460135,35,-168,8331,82,-84,-70
0.460275,68,-107,8303,12,-77,-1
0.460416,32,-174,8283,50,-84,-13
0.460553,24,-91,8282,50,-58,-20
0.460692,34,-138,8295,44,-52,-32
0.460833,25,-141,8336,44,-71,-20
0.460973,-19,-176,8362,56,-77,-13
0.46111,-15,-177,8332,38,-71,-45
0.46125,-2,-105,8348,44,-46,-1
0.46139,-35,-158,8296,19,-84,-1
0.46153,28,-177,8298,63,-52,-39
0.461668,17,-156,8291,63,-97,-13
0.461807,46,-91,8337,0,-46,-26
0.461946,42,-165,8312,82,-141,-39
0.462085,18,-82,8288,56,-33,-13
0.462225,24,-183,8303,25,-65,12
0.462364,47,-164,8291,44,-90,-39
0.462505,26,-171,8321,12,-65,-20
0.462643,13,-153,8351,88,-71,-7
0.462782,12,-116,8304,12,-71,-45
0.462922,52,-176,8338,75,-58,-1
0.463061,50,-185,8317,50,-122,-51
0.4632,-24,-111,8317,38,-7,-7
0.463339,-23,-164,8294,6,-116,-39
0.463478,2,-164,8316,82,-33,12
0.463618,-59,-187,8358,25,-109,-64
0.463757,-16,-161,8257,63,-39,-13
0.463896,39,-157,8316,44,-90,-13
0.464036,42,-128,8325,-13,-52,-13
0.464175,2,-173,8326,113,-97,-32
0.464314,-9,-140,8342,0,-58,-26
0.464454,-4,-163,8387,63,-58,-13
0.464593,2,-154,8360,56,-58,-26
0.464732,24,-155,8283,31,-84,5
0.464872,21,-135,8294,75,-90,-64
0.465011,48,-150,8314,19,-39,-1
0.46515,2,-151,8377,69,-71,-26
0.465289,-19,-159,8325,63,-77,-20
0.465429,16,-151,8346,6,-90,-7
0.465568,-43,-133,8339,94,-65,-26
0.465707,35,-141,8280,25,-20,-45
0.465847,-35,-183,8329,31,-122,5
0.465986,-9,-153,8274,82,-46,-26
0.466126,32,-184,8285,50,-65,-51
0.466265,49,-196,8323,38,-58,31
0.466406,11,-163,8327,38,-122,-39
0.466544,16,-165,8322,82,-26,-45
0.466683,48,-147,8308,-13,-77,24
0.466822,42,-130,8331,69,-52,-83
0.466961,42,-145,8308,44,-71,18
0.467102,14,-153,8316,38,-65,-13
0.46724,-2,-150,8296,75,-90,-70
0.46738,6,-129,8322,19,-46,37
0.467519,23,-125,8334,50,-71,-64
0.467658,12,-159,8335,25,-58,-26
0.467797,26,-152,8286,63,-39,-20
0.467936,35,-165,8347,31,-58,5
0.468077,-27,-187,8359,31,-65,-51
0.468215,-28,-167,8317,82,-97,-45
0.468354,16,-121,8310,6,-20,43
0.468496,23,-199,8358,56,-90,-64
0.468633,-6,-196,8308,63,-58,-26
0.468774,27,-142,8331,38,-84,-20
0.468912,32,-138,8296,44,-52,-20
0.469051,12,-180,8280,75,-71,-32
0.469192,13,-118,8279,12,-58,-32
0.46933,12,-144,8306,50,-58,18
0.46947,-48,-177,8296,44,-65,-77
0.469609,-50,-184,8365,63,-65,24
0.469749,11,-182,8340,38,-97,-51
0.469889,-17,-139,8326,38,-33,-45
0.470028,-57,-162,8319,56,-52,50
0.470168,18,-182,8316,88,-97,-77
0.470305,30,-165,8276,-13,-52,-26
0.470445,57,-89,8302,56,-26,24
0.470584,30,-102,8256,38,-65,-32
0.470723,23,-115,8294,75,-116,-51
0.470862,3,-84,8291,19,-46,31
0.471001,28,-116,8321,75,-71,-58
0.471141,41,-180,8286,31,-58,-1
0.47128,-2,-91,8347,50,-84,-20
0.471419,44,-164,8322,38,-58,-39
0.471558,-60,-139,8335,56,-58,-20
0.471698,-8,-135,8297,50,-90,-1
0.471837,37,-142,8275,25,-65,-32
0.471976,-3,-120,8295,75,-52,-20
0.472116,32,-148,8313,69,-84,-32
0.472255,-14,-139,8330,38,-52,18
0.472396,35,-108,8331,25,-71,-58
0.472534,49,-100,8293,63,-65,5
0.472673,48,-138,8329,50,-84,-45
0.472812,-4,-144,8314,38,-33,-7
0.472952,-15,-149,8281,38,-58,-1
0.473091,-17,-104,8250,94,-128,-77
0.47323,26,-150,8303,6,-39,18
0.473371,-10,-135,8253,44,-65,-13
0.473509,15,-136,8279,50,-84,-64
0.473648,40,-176,8288,38,-26,31
0.473788,5,-176,8261,94,-128,-64
0.473927,39,-158,8221,19,-26,5
0.474066,78,-122,8330,63,-103,-32
0.474205,64,-134,8317,31,-20,-1
0.474345,25,-127,8290,31,-71,-26
0.474485,7,-63,8274,63,-65,-26
0.474623,-28,-178,8291,38,-46,-1
0.474763,32,-162,8227,69,-116,-45
0.474904,-17,-120,8232,19,-7,-45
0.475041,3,-107,8258,63,-77,12
0.47518,-26,-163,8284,50,-65,-39
0.47532,-26,-131,8214,38,-65,5
0.475459,-14,-88,8288,56,-46,-1
0.475598,-24,-87,8286,44,-97,-51
0.475738,44,-147,8232,63,-71,-13
0.475877,54,-100,8261,38,-77,-39
0.476016,-1,-112,8270,63,-58,12
0.476156,-31,-122,8303,31,-65,-26
0.476296,18,-140,8318,75,-84,-26
0.476434,-8,-129,8274,31,-77,-7
0.476573,-42,-150,8303,56,-65,-45
0.476713,-37,-159,8292,75,-90,-20
0.476852,-27,-143,8262,6,-46,-13
0.476991,-13,-96,8241,44,-71,-13
0.477131,-1,-143,8268,44,-71,-1
0.47727,-8,-149,8314,44,-46,-26
0.477409,10,-112,8252,44,-103,-26
0.477552,-12,-164,8260,38,-65,-13
0.477688,-59,-93,8218,75,-71,-45
0.477827,-1,-93,8248,25,-71,-45
0.477969,4,-113,8260,50,-46,24
0.478107,24,-113,8304,38,-84,-64
0.478246,-8,-122,8289,56,-71,-7
0.478384,21,-152,8296,0,-65,-20
0.478524,35,-117,8312,94,-71,-20
0.478665,-16,-96,8303,44,-71,-13
0.478802,-61,-204,8297,44,-71,-39
0.478943,25,-131,8301,19,-33,-7
0.479081,12,-132,8322,75,-71,-1
0.47922,13,-142,8233,6,-65,-58
0.47936,-7,-166,8320,88,-97,-13
0.479501,12,-48,8310,6,-20,5
0.479638,6,-105,8309,69,-97,-32
0.479778,-6,-130,8288,25,-58,-39
0.479917,21,-60,8350,50,-84,-1
0.480057,51,-147,8306,31,-33,-1
0.480196,23,-216,8276,56,-84,-45
0.480335,44,-108,8272,50,-65,5
0.480474,46,-66,8276,25,-71,-32
0.480614,-7,-124,8319,31,-58,-7
0.480753,22,-99,8276,82,-103,-58
0.480892,-26,-156,8304,31,-14,43
0.481032,-15,-136,8271,38,-116,-58
0.481171,22,-88,8284,38,-65,-32
0.48131,13,-128,8286,63,-71,-7
0.48145,0,-61,8295,6,-52,-20
0.481589,36,-74,8275,56,-84,-32
0.481728,42,-74,8257,63,-90,-1
0.481867,10,-101,8241,38,-33,-58
0.482007,24,-134,8249,50,-77,18
0.482146,22,-157,8241,38,-103,-32
0.482285,8,-84,8273,82,-84,-39
0.482424,-11,-133,8307,44,-46,-7
0.482564,13,-84,8285,6,-65,-26
0.482703,-8,-142,8310,88,-65,-32
0.482843,-13,-158,8285,38,-84,-1
0.482982,78,-122,8292,44,-77,-13
0.483121,6,-166,8279,19,-71,-20
0.483261,25,-184,8353,56,-52,-32
0.4834,13,-169,8348,50,-84,-1
0.483539,26,-77,8314,63,-39,-51
0.483678,-14,-79,8322,-19,-77,-20
0.483818,-28,-158,8333,107,-71,5
0.483957,-38,-99,8281,44,-26,-32
0.484096,29,-75,8255,25,-109,-20
0.484236,45,-162,8273,63,-39,-13
0.484378,-4,-148,8308,25,-90,-39
0.484514,-9,-130,8263,69,-71,12
0.484654,-31,-119,8307,19,-65,-32
0.484793,-67,-132,8302,75,-77,-20
0.484933,-62,-180,8320,19,-71,-26
0.485071,7,-199,8314,75,-39,-13
0.485211,54,-161,8295,38,-109,-45
0.48535,51,-118,8271,44,-26,-1
0.485489,46,-158,8269,44,-97,-26
0.485629,68,-187,8315,50,-65,-20
0.485768,-14,-201,8347,31,-33,-7
0.485907,40,-167,8324,25,-103,-1
0.486046,20,-154,8341,75,-84,-77
0.486186,-20,-167,8337,0,-71,-1
0.486325,-17,-115,8312,63,-58,12
0.486464,-3,-162,8335,25,-71,-32
0.486604,10,-199,8315,63,-71,-51
0.486744,30,-201,8340,38,-84,24
0.486883,-77,-142,8253,56,-58,-20
0.487022,24,-163,8275,19,-77,-45
0.487161,26,-138,8262,63,-77,-1
0.4873,-18,-189,8304,50,-65,-39
0.487441,56,-185,8264,19,-65,-20
0.487579,54,-165,8346,56,-97,-13
0.487718,-8,-206,8322,56,-7,-7
0.487858,-19,-162,8276,6,-116,-20
0.487997,11,-108,8307,75,-46,-51
0.488137,5,-109,8342,19,-39,-1
0.488275,2,-165,8306,31,-97,-1
0.488415,43,-163,8314,69,-58,-26
0.488554,-6,-142,8303,38,-71,-20
0.488693,68,-128,8328,38,-84,-45
0.488833,21,-116,8308,38,-58,-1
0.488972,45,-189,8306,50,-71,-51
0.489112,33,-164,8340,38,-65,24
0.489251,22,-147,8346,38,-58,-39
0.48939,39,-71,8290,82,-116,-13
0.489531,23,-93,8304,25,-26,-39
0.489669,66,-188,8328,38,-84,-7
0.489808,12,-197,8300,19,-84,-45
0.489949,-48,-141,8322,56,-65,-1
0.490087,-14,-98,8333,63,-71,-26
0.490226,-22,-157,8273,38,-71,-20
0.490365,-5,-155,8332,50,-46,-20
0.490505,48,-149,8362,25,-84,-7
0.490644,55,-159,8332,56,-77,-51
0.490784,64,-125,8333,38,-39,-1
0.490922,-12,-151,8290,19,-77,-20
0.491062,12,-137,8279,75,-90,-64
0.491201,78,-179,8332,44,-65,12
0.49134,14,-182,8310,6,-71,-20
0.49148,51,-117,8274,44,-65,-45
0.491619,-19,-169,8331,75,-58,-39
0.491758,37,-128,8278,25,-90,-7
0.491898,6,-138,8290,31,-46,-13
0.492037,32,-137,8304,75,-103,-45
0.492176,13,-156,8340,0,-26,18
0.492315,8,-163,8326,94,-122,-89
0.492455,6,-132,8270,-25,-33,24
0.492594,-19,-130,8256,82,-90,-45
0.492733,18,-124,8294,38,-52,-13
0.492873,16,-133,8331,31,-103,-32
0.493012,37,-184,8293,75,-65,-7
0.493151,14,-143,8327,31,-71,-20
0.493291,47,-110,8300,19,-71,-26
0.49343,-1,-152,8305,100,-39,5
0.493569,18,-95,8308,0,-128,-51
0.493709,11,-144,8269,63,-20,31
0.493848,-4,-134,8243,56,-128,-51
0.493987,40,-157,8297,19,-20,-13
0.494127,-10,-128,8323,56,-109,-26
0.494266,-26,-142,8330,25,-26,-26
0.494405,14,-86,8277,31,-116,-1
0.494545,90,-91,8297,69,-46,-32
0.494683,-15,-140,8278,50,-109,-32
0.494824,9,-148,8274,6,-1,-7
0.494962,14,-96,8250,82,-109,-32
0.495102,33,-152,8267,6,-39,5
0.495241,25,-153,8279,82,-84,-58
0.49538,60,-114,8354,38,-77,5
0.495519,40,-108,8283,44,-71,-7
0.495659,46,-128,8258,44,-90,-51
0.495798,-6,-58,8269,31,-65,-7
0.495937,12,-87,8349,69,-77,12
0.496077,17,-155,8309,25,-46,-64
0.496216,3,-144,8306,63,-103,-7
0.496355,25,-108,8322,38,-90,-13
0.496494,2,-75,8304,56,-39,-51
0.496634,-9,-65,8337,12,-97,18
0.496775,-44,-143,8325,44,-33,-26
0.496913,3,-117,8256,63,-116,-51
0.497054,61,-151,8225,44,-77,-7
0.497192,29,-175,8260,44,-26,-7
0.497331,6,-161,8358,50,-77,-20
0.49747,14,-130,8304,50,-84,-26
0.49761,17,-135,8256,12,-46,5
0.497748,-47,-149,8298,63,-77,-39
0.497888,4,-100,8280,56,-90,-20
0.498027,-9,-99,8311,38,-39,-26
0.498166,-36,-171,8330,44,-52,12
0.498307,-34,-138,8306,38,-84,-45
0.498445,23,-145,8300,44,-33,-20
0.498584,11,-144,8316,38,-103,-7
0.498724,-11,-116,8227,44,-52,-26
0.498863,-9,-136,8280,38,-52,-7
0.499002,61,-159,8257,56,-116,-32
0.499142,4,-132,8268,19,-7,-32
0.499281,16,-110,8303,82,-116,-7
0.49942,3,-100,8309,6,-52,-32
0.499561,9,-65,8336,63,-77,-20
0.499699,-49,-133,8331,25,-65,-20
0.499839,-64,-134,8264,44,-65,-26
0.499979,-8,-83,8293,38,-46,12
0.500117,-7,-112,8356,69,-90,-26
0.500256,8,-141,8300,19,-77,-89
0.500397,-6,-180,8222,31,-20,37
0.500535,-18,-134,8302,56,-77,-83
0.500674,-14,-95,8353,56,-97,31
0.500813,2,-89,8308,31,-71,-58
0.500953,-32,-126,8286,44,-65,-7
0.501092,-21,-92,8292,50,-103,-64
0.501231,23,-185,8272,6,-20,24
0.501371,31,-184,8324,88,-109,-26
0.50151,63,-165,8307,19,-46,-13
0.501649,12,-110,8299,31,-90,-32
0.501788,1,-90,8311,63,-71,-26
0.501928,-25,-164,8270,44,-84,-20
0.502067,-20,-135,8297,25,-52,-7
0.502206,10,-125,8275,69,-84,-26
0.502346,27,-118,8276,44,-71,-26
0.502485,1,-119,8272,12,-46,-7
0.502624,4,-115,8296,63,-77,-7
0.502764,35,-139,8356,50,-90,-45
0.502903,35,-142,8324,50,-65,-32
0.503042,33,-145,8318,0,-77,-1
0.503182,2,-157,8273,50,-97,-58
0.503321,18,-157,8330,88,-84,24
0.50346,43,-164,8311,56,-20,-20
0.5036,32,-199,8320,12,-109,-64
0.503739,19,-195,8361,56,-52,18
0.503878,-14,-129,8299,19,-77,-51
0.504017,25,-164,8292,50,-46,31
0.504157,30,-161,8326,56,-128,-58
0.504296,26,-131,8309,31,-65,-39
0.504435,-22,-154,8383,38,-65,-20
0.504575,12,-94,8286,44,-58,-13
0.504714,44,-161,8291,25,-90,-1
0.504853,25,-153,8319,82,-46,-77
0.504993,-2,-115,8310,19,-77,5
0.505132,-7,-150,8327,56,-77,5
0.505271,-10,-171,8263,19,-52,-51
0.50541,20,-139,8335,50,-84,-13
0.50555,-70,-190,8400,75,-97,-51
0.505689,15,-159,8367,-6,-33,12
0.505828,12,-152,8306,100,-90,-13
0.505967,-9,-159,8315,19,-77,-70
0.506107,36,-94,8324,63,-90,-7
0.506246,24,-106,8307,12,-39,-7
0.506385,19,-108,8316,38,-116,-26
0.506525,15,-161,8391,44,-46,-7
0.506664,29,-169,8332,38,-65,-26
0.506804,36,-111,8320,44,-71,-32
0.506944,8,-130,8289,6,-97,-7
0.507082,20,-141,8303,113,-65,-45
0.507222,27,-109,8259,0,-65,-20
0.507361,19,-165,8287,25,-77,-13
0.507501,-16,-154,8290,56,-65,-39
0.507639,12,-133,8321,44,-39,18
0.507779,-31,-122,8302,38,-103,-45
0.507918,-11,-145,8347,50,-77,-45
0.508057,1,-181,8341,38,-20,37
0.508197,28,-133,8327,38,-116,-32
0.508338,48,-150,8289,38,-52,-39
0.508475,50,-133,8291,69,-71,-26
0.508615,-25,-112,8326,6,-46,12
0.508754,-1,-158,8308,63,-77,-7
0.508893,32,-127,8289,56,-65,-26
0.509033,-3,-94,8317,25,-58,-45
0.509172,22,-128,8333,69,-77,12
0.509311,-28,-101,8298,31,-71,-39
0.509452,21,-185,8369,31,-84,-1
0.50959,66,-153,8360,82,-103,-45
0.509729,49,-136,8294,25,-65,-1
0.50987,-6,-205,8297,19,-39,-20
0.510008,-14,-180,8342,82,-97,-32
0.510147,6,-119,8326,63,-71,-7
0.510286,-21,-125,8312,-19,-52,-13
0.510427,35,-124,8290,69,-52,-20
0.510565,55,-92,8326,31,-116,-39
0.510704,11,-160,8315,56,-20,18
0.510844,16,-133,8252,12,-116,-70
0.510984,6,-158,8281,44,-14,12
0.511122,8,-144,8333,31,-109,-26
0.511261,29,-113,8328,75,-1,-20
0.511401,-31,-137,8330,6,-90,5
0.51154,48,-163,8357,94,-90,-64
0.511679,20,-95,8306,-6,-20,31
0.511819,-31,-94,8332,56,-116,-51
0.511958,20,-162,8366,50,-58,-26
0.512097,45,-139,8327,69,-58,-7
