Average_IMU_SPS_Hz,6759.574
IMU_Time_sec,Accel_X_raw,Accel_Y_raw,Accel_Z_raw,Gyro_X_raw,Gyro_Y_raw,Gyro_Z_raw
0.0,31,-171,8360,69,-58,-39
0.000139,76,-83,8316,6,-58,18
0.00028,37,-114,8326,75,-84,-51
0.000417,74,-127,8287,-6,-84,-7
0.000557,27,-70,8360,88,-46,-26
0.000696,-3,-155,8340,12,-71,-26
0.000836,22,-189,8236,50,-71,-26
0.000975,84,-210,8288,44,-46,-1
0.001114,51,-210,8308,69,-77,-70
0.001253,23,-201,8229,6,-77,12
0.001393,-53,-160,8261,75,-84,-13
0.001532,-3,-160,8291,44,-52,-26
0.001671,-24,-89,8395,19,-84,-39
0.001811,-40,-76,8348,82,-71,-26
0.00195,20,-62,8273,31,-71,-13
0.002089,25,-88,8294,44,-77,-7
0.002229,12,-137,8318,0,-46,-20
0.002368,-25,-94,8237,94,-90,-39
0.002507,-5,-189,8309,12,-103,-20
0.002647,5,-103,8261,44,-20,12
0.002786,7,-153,8251,56,-97,-64
0.002925,-7,-126,8277,50,-84,-1
0.003064,53,-86,8337,25,-52,-20
0.003204,66,-94,8306,31,-46,-13
0.003343,80,-63,8342,69,-97,-51
0.003482,35,-45,8274,19,-65,-13
0.003622,-23,-23,8273,56,-58,-1
0.003761,12,-54,8251,56,-90,-51
0.0039,-9,-88,8314,31,-46,-20
0.00404,37,-124,8323,63,-90,-39
0.004179,7,-158,8349,31,-65,-13
0.004318,-3,-210,8312,25,-52,-20
0.004458,-42,-92,8268,82,-77,-26
0.004597,-31,-87,8305,6,-58,-13
0.004736,7,-114,8258,44,-71,-26
0.004875,-30,-135,8290,44,-103,-20
0.005015,-19,-198,8269,44,-7,-7
0.005154,-46,-161,8300,38,-90,-20
0.005293,-40,-145,8328,69,-52,-32
0.005433,6,-150,8343,69,-109,-39
0.005572,-7,-130,8253,12,-39,5
0.005711,-14,-93,8285,50,-90,-32
0.005851,-1,-149,8286,63,-84,-20
0.00599,-12,-189,8327,0,-65,-51
0.006129,16,-171,8297,69,-58,12
0.006269,25,-88,8315,38,-77,-26
0.006408,97,-164,8247,31,-58,-7
0.006547,87,-130,8268,69,-71,-45
0.006686,81,-104,8300,38,-90,5
0.006826,90,-104,8369,56,-58,-26
0.006965,42,-17,8336,25,-90,-26
0.007104,29,-76,8263,63,-58,-13
0.007244,39,-40,8310,75,-71,-39
0.007383,11,-44,8275,19,-58,5
0.007522,70,-149,8332,69,-109,-45
0.007665,62,-155,8321,44,-26,5
0.007801,5,-164,8306,25,-109,-20
0.00794,57,-110,8272,38,-39,-45
0.00808,-24,-73,8238,82,-90,-13
0.008219,-30,-70,8329,38,-65,-58
0.008358,-2,-49,8344,31,-90,5
0.008497,-14,-100,8335,82,-52,-39
0.008638,5,-132,8334,6,-52,-20
0.008776,19,-88,8290,56,-90,5
0.008915,-3,-124,8266,50,-39,-32
0.009055,14,-160,8308,63,-122,-58
0.009194,-13,-184,8307,25,-20,24
0.009336,27,-114,8249,69,-84,-39
0.009473,27,-174,8241,44,-84,-45
0.009612,67,-178,8255,38,-58,5
0.009751,67,-151,8323,31,-77,-7
0.009891,2,-144,8359,56,-58,-51
0.010034,-23,-155,8367,56,-84,-13
0.01017,34,-104,8302,44,-71,-20
0.010309,99,-69,8273,56,-52,-7
0.010448,81,-114,8261,31,-84,-45
0.010588,81,-136,8243,31,-46,-20
0.010727,49,-161,8310,44,-77,-20
0.010866,-52,-266,8352,63,-71,24
0.011006,-14,-150,8334,0,-58,-39
0.011144,-14,-94,8330,44,-77,-39
0.011284,36,-79,8334,56,-52,-26
0.011423,12,-82,8359,63,-122,-7
0.011562,-42,-171,8353,31,-26,-20
0.011701,-37,-155,8352,38,-90,-26
0.011841,-8,-166,8363,31,-20,-39
0.01198,-8,-139,8362,56,-84,12
0.012119,-14,-129,8294,38,-116,-39
0.012259,26,-147,8224,56,-84,-45
0.012398,47,-123,8274,-6,-20,5
0.012537,30,-99,8337,82,-77,-20
0.012678,55,-124,8413,38,-97,-39
0.012818,21,-102,8354,19,-52,-7
0.012956,32,-88,8299,56,-84,-32
0.013095,31,-123,8297,19,-39,-7
0.013238,1,-92,8290,44,-90,-32
0.013373,42,-184,8360,44,-58,-20
0.013513,-26,-96,8320,56,-39,-1
0.013652,34,-48,8262,19,-71,-26
0.013791,27,-89,8275,56,-90,-26
0.013931,-29,-51,8322,25,-20,-32
0.014071,12,-100,8342,31,-84,24
0.014209,-49,-108,8361,75,-52,-39
0.014351,-8,-141,8274,50,-84,-51
0.014489,52,-72,8278,25,-58,-1
0.014628,4,-125,8285,25,-52,-7
0.014767,-36,-114,8253,44,-84,-45
0.014906,9,-137,8310,12,-46,-20
0.015045,26,-144,8344,75,-103,-32
0.015185,-12,-105,8242,44,-52,-20
0.015324,-29,-132,8273,25,-77,-26
0.015463,-62,-138,8311,50,-58,-13
0.015603,61,-72,8390,19,-46,-26
0.015742,85,-107,8347,50,-65,-20
0.015881,63,-77,8277,63,-103,-13
0.01602,93,-159,8276,19,-46,-45
0.01616,72,-216,8271,56,-65,18
0.016299,69,-131,8219,19,-77,-32
0.016438,24,-184,8211,82,-90,-32
0.016578,19,-110,8226,31,-52,-20
0.016717,29,-130,8269,12,-33,-13
0.016856,50,-125,8295,113,-116,-26
0.016996,39,-136,8374,-6,-33,5
0.017135,22,-108,8351,50,-97,-51
0.017274,-28,-148,8338,50,-52,-1
0.017413,-10,-132,8310,19,-52,-13
0.017553,51,-61,8315,31,-97,-45
0.017692,-19,-99,8266,75,-97,-1
0.017831,32,-72,8306,25,-20,-58
0.017971,32,-66,8334,38,-97,5
0.01811,53,-80,8334,63,-65,-20
0.018249,-4,-69,8347,38,-52,-32
0.018389,111,-157,8309,44,-103,-39
0.018528,88,-181,8275,56,-20,18
0.018667,43,-213,8366,19,-97,-58
0.018807,45,-155,8305,63,-71,-13
0.018946,-8,-161,8286,25,-77,-26
0.019085,-25,-110,8311,12,-52,5
0.019224,-60,-165,8282,94,-39,-70
0.019364,-1,-124,8335,-6,-84,5
0.019503,-10,-123,8335,75,-52,-26
0.019642,3,-113,8308,12,-46,-26
0.019782,44,-144,8232,50,-84,-7
0.019921,30,-174,8228,56,-97,-64
0.02006,6,-151,8300,25,-58,18
0.020201,3,-89,8324,12,-46,-1
0.02034,0,-156,8255,94,-84,-70
0.020478,-28,-142,8271,-50,-33,24
0.020618,6,-169,8332,107,-90,-58
0.020758,-3,-112,8309,50,-52,-1
0.020896,6,-55,8281,25,-77,-58
0.021035,65,-99,8291,56,-65,5
0.021175,60,-146,8274,6,-65,-26
0.021314,24,-181,8300,63,-90,-20
0.021453,39,-214,8292,25,-39,5
0.021592,-6,-223,8287,56,-71,-77
0.021732,-13,-176,8235,25,-84,12
0.021871,41,-189,8287,63,-58,-13
0.022011,22,-143,8319,56,-97,-26
0.02215,22,-158,8336,-25,-46,-20
0.022289,9,-137,8384,88,-58,-32
0.02243,56,-172,8410,69,-128,-51
0.022568,16,-68,8342,25,-39,12
0.022709,48,-67,8291,31,-46,-32
0.022849,22,-50,8261,94,-97,-51
0.022986,36,-150,8323,50,-58,31
0.023125,35,-173,8299,-19,-65,-51
0.023264,3,-80,8297,88,-71,-32
0.023406,79,-83,8298,50,-77,-7
0.023543,45,-89,8327,31,-58,-45
0.023682,38,-162,8284,63,-71,-13
0.023822,-4,-168,8325,31,-52,-32
0.023962,55,-177,8400,44,-39,12
0.024101,78,-175,8342,25,-90,-64
0.024239,35,-126,8325,56,-33,5
0.024379,53,-156,8251,31,-90,-26
0.024518,75,-96,8271,69,-65,-32
0.024658,30,-54,8313,19,-58,-13
0.024797,69,-106,8379,50,-84,-7
0.024936,59,-132,8332,25,-33,-39
0.025075,68,-132,8296,63,-103,-20
0.025215,30,-136,8324,63,-77,-51
0.025354,25,-105,8354,6,-14,12
0.025493,11,-108,8317,94,-109,-51
0.025633,33,-106,8276,38,-39,-26
0.025772,56,-132,8198,31,-77,12
0.025911,-22,-131,8258,31,-65,-20
0.026051,12,-166,8354,75,-97,-45
0.02619,76,-116,8340,63,-39,-1
0.026328,20,-88,8328,6,-65,-26
0.026468,47,-77,8324,69,-84,-32
0.026608,43,-89,8293,12,-7,-7
0.026747,67,-163,8280,50,-128,-20
0.026886,41,-207,8226,63,-33,-32
0.027026,9,-196,8330,-6,-84,-1
0.027165,-18,-147,8322,107,-103,-64
0.027304,-26,-133,8383,6,-46,5
0.027444,-4,-93,8291,107,-84,-45
0.027583,-22,-103,8258,-32,-26,-13
0.027722,47,-49,8306,75,-77,-1
0.027861,65,-69,8357,50,-90,-45
0.028001,97,-114,8330,50,-46,-20
0.02814,36,-117,8374,25,-97,-13
0.028279,87,-112,8264,50,-46,-32
0.028419,96,-101,8261,31,-90,-20
0.028558,75,-100,8310,50,-52,-26
0.028697,57,-79,8265,88,-103,-26
0.028837,-16,-87,8318,25,-39,-32
0.028976,-61,-115,8390,6,-97,31
0.029115,12,-131,8369,88,-52,-32
0.029255,106,-126,8293,44,-84,-51
0.029394,25,-155,8244,-6,-84,24
0.029533,3,-160,8276,75,-84,-58
0.029673,51,-196,8304,25,-33,-51
0.029812,56,-120,8293,63,-122,37
0.029951,-14,-139,8284,50,-33,-32
0.030091,-14,-54,8312,56,-90,-45
0.03023,-2,-112,8303,19,-77,-7
0.030369,21,-172,8303,50,-46,-32
0.030509,21,-184,8349,38,-90,-32
0.030648,35,-195,8350,31,-71,-7
0.030787,97,-113,8381,44,-71,-26
0.030926,68,-104,8248,56,-58,-26
0.031066,62,-114,8254,38,-84,-13
0.031205,94,-90,8357,19,-58,-1
0.031344,-38,-185,8401,50,-90,-45
0.031483,-71,-170,8332,88,-77,-39
0.031623,36,-148,8276,6,-77,-13
0.031762,40,-95,8282,63,-26,24
0.031901,3,-85,8345,56,-109,-89
0.032041,17,-93,8329,19,-33,24
0.03218,33,-113,8338,56,-128,-51
0.032319,51,-102,8286,6,-14,-32
0.032459,60,-69,8235,88,-109,-26
0.032598,42,-104,8290,25,-39,5
0.032738,56,-82,8283,75,-90,-26
0.032878,22,-67,8284,-6,-52,-26
0.033016,-19,-45,8307,82,-109,-39
0.033157,-14,-100,8294,12,-58,-13
0.033295,59,-107,8235,38,-71,-20
0.033434,-19,-107,8303,44,-58,-20
0.033573,6,-159,8391,50,-77,-26
0.033712,27,-109,8338,50,-71,-1
0.033852,29,-72,8334,12,-71,-32
0.033991,66,-137,8373,50,-26,-7
0.03413,28,-154,8304,63,-116,-45
0.03427,9,-189,8290,56,-58,-20
0.034409,56,-135,8295,25,-65,-1
0.034548,42,-116,8334,75,-103,-70
0.034689,14,-145,8319,0,-33,50
0.034827,76,-108,8250,69,-77,-83
0.034966,13,-150,8291,38,-65,31
0.035107,61,-99,8279,12,-46,-39
0.035251,39,-161,8339,56,-103,-13
0.035384,-1,-134,8361,44,-65,-58
0.035524,28,-114,8287,6,-52,-1
0.035664,39,-128,8331,63,-84,-7
0.035802,28,-95,8334,75,-77,-64
0.035941,10,-124,8341,19,-52,5
0.036081,4,-113,8332,75,-58,-13
0.03622,-6,-96,8273,31,-84,-51
0.036359,-14,-87,8268,38,-33,-7
0.036499,43,-193,8262,63,-97,-1
0.03664,69,-176,8322,38,-77,-39
0.036777,46,-194,8322,12,-33,-20
0.036917,7,-116,8285,113,-135,-32
0.037056,-22,-147,8365,6,-14,-1
0.037195,-21,-97,8334,56,-84,-58
0.037336,31,-92,8302,19,-65,12
0.037474,25,-137,8312,63,-103,-13
0.037613,-23,-110,8335,56,-33,-7
0.037753,93,-164,8303,12,-84,-7
0.037892,34,-139,8313,82,-65,-58
0.038031,2,-181,8302,0,-58,12
0.03817,61,-92,8253,75,-109,-64
0.03831,20,-189,8306,19,-14,18
0.038449,46,-93,8348,56,-97,-64
0.038588,51,-100,8344,50,-65,24
0.038727,60,-117,8317,12,-116,-77
0.038867,46,-111,8278,63,-46,12
0.039006,71,-75,8261,44,-65,-39
0.039146,-48,-73,8306,44,-77,-20
0.039285,13,-137,8307,31,-52,-32
0.039425,-13,-225,8343,38,-97,-20
0.039564,13,-204,8330,25,-14,5
0.039703,27,-137,8315,50,-103,-45
0.039842,-25,-125,8331,75,-77,-20
0.039982,69,-122,8277,-13,-77,-20
0.040121,44,-89,8274,44,-39,-1
0.04026,-12,-109,8301,50,-90,-7
0.0404,-21,-153,8308,50,-46,-64
0.040539,28,-141,8243,50,-109,5
0.04068,16,-166,8266,50,-26,-7
0.040817,24,-157,8253,-6,-97,-32
0.040958,-24,-176,8294,82,-46,-32
0.041097,18,-152,8307,50,-84,-20
0.041235,22,-98,8283,31,-84,-13
0.041376,-3,-47,8271,63,-84,-51
0.041514,-3,-36,8317,12,-26,12
0.041654,15,-113,8342,69,-90,-39
0.041797,6,-121,8336,31,-71,-32
0.041932,28,-100,8298,31,-77,5
0.042071,35,-78,8198,25,-39,-51
0.04221,22,-150,8245,69,-116,-45
0.042349,1,-140,8272,56,-14,5
0.042489,-30,-133,8327,25,-97,5
0.042628,13,-152,8316,44,-77,-70
0.042767,9,-112,8368,38,-52,12
0.042907,26,-139,8318,69,-65,-51
0.043048,2,-99,8282,56,-97,-13
0.043186,7,-89,8310,44,-65,-20
0.043325,40,-102,8354,0,-46,-1
0.043464,-4,-86,8340,107,-122,-58
0.043604,-60,-95,8329,12,-14,-7
0.043745,6,-68,8321,44,-97,-7
0.043882,-18,-128,8274,38,-65,-7
0.044021,21,-141,8324,50,-46,-32
0.044161,44,-146,8308,44,-84,-20
0.0443,26,-165,8278,50,-77,-39
0.04444,8,-140,8310,31,-52,-1
0.044578,10,-100,8302,50,-46,-64
0.044718,31,-114,8256,38,-109,43
0.044859,30,-118,8312,31,-65,-64
0.044997,27,-62,8308,56,-71,-7
0.045136,49,-114,8251,69,-58,-7
0.045275,20,-123,8292,6,-90,-26
0.045415,28,-69,8320,50,-52,-26
0.045554,33,-64,8300,19,-109,-39
0.045693,26,-52,8312,75,-77,-20
0.045834,16,-130,8310,25,-26,12
0.045972,28,-150,8380,63,-90,-39
0.046111,24,-151,8332,6,-46,-20
0.04625,-59,-178,8337,44,-84,-20
0.046391,-33,-190,8302,50,-46,-7
0.046529,47,-111,8301,38,-71,-32
0.046668,21,-98,8292,44,-77,-7
0.04681,29,-133,8296,31,-71,-13
0.046947,68,-180,8332,50,-77,-58
0.047086,58,-126,8330,75,-65,5
0.047225,-15,-131,8339,25,-71,-26
0.047365,34,-134,8326,44,-65,-20
0.047504,41,-105,8239,56,-58,-20
0.047644,0,-124,8282,50,-103,-32
0.047783,-21,-66,8254,19,-65,-26
0.047922,-23,-128,8309,63,-90,-13
0.048061,-22,-156,8359,38,-58,-26
0.048201,-40,-174,8358,88,-97,-39
0.04834,-12,-123,8317,19,-46,-7
0.048479,48,-149,8332,56,-71,-7
0.048619,14,-112,8331,38,-97,-39
0.048758,5,-152,8307,19,-71,-1
0.048897,52,-109,8319,69,-90,-51
0.049037,19,-120,8266,56,-33,18
0.049176,43,-92,8279,38,-77,-26
0.049315,20,-145,8350,44,-84,-45
0.049454,38,-157,8318,44,-46,-1
0.049594,24,-113,8257,69,-97,-70
0.049733,-29,-86,8323,25,-71,56
0.049872,5,-106,8388,25,-52,-58
0.050012,24,-108,8317,100,-90,-45
0.050151,26,-151,8327,-6,-71,24
0.05029,9,-121,8304,31,-77,-58
0.050429,-20,-122,8330,56,-52,-32
0.050569,23,-57,8297,38,-77,-7
0.050708,63,-104,8236,44,-84,-26
0.050849,30,-81,8277,44,-52,12
0.050987,-21,-88,8325,38,-97,-51
0.051126,-37,-142,8277,50,-46,-26
0.051265,-24,-148,8349,63,-103,-7
0.051405,-3,-162,8336,0,-52,18
0.051544,37,-134,8321,94,-97,-70
0.051683,7,-131,8340,12,-52,-39
0.051822,6,-147,8307,69,-52,31
0.051962,32,-127,8288,44,-109,-83
0.052101,34,-107,8265,12,-33,12
0.052242,28,-148,8262,75,-77,-39
0.05238,-56,-99,8299,31,-65,5
0.052519,-17,-145,8234,50,-77,-45
0.052658,25,-156,8310,56,-77,-7
0.052799,22,-96,8286,6,-46,-1
0.052937,13,-86,8260,82,-116,-39
0.053076,23,-96,8297,69,-46,-13
0.053216,45,-93,8265,19,-71,-26
0.053355,21,-152,8266,31,-90,-1
0.053496,-14,-169,8302,63,-65,-39
0.053634,-60,-105,8308,38,-65,-7
0.053773,-20,-139,8294,-19,-46,-39
0.053913,3,-167,8324,107,-109,-39
0.054052,4,-120,8271,50,-71,-20
0.054191,19,-122,8232,-19,-52,-20
0.054331,43,-124,8281,94,-77,-1
0.05447,64,-125,8285,0,-65,-26
0.054609,71,-136,8288,113,-58,-39
0.054748,25,-163,8291,-13,-71,5
0.054888,41,-148,8355,75,-84,-51
0.055027,55,-153,8315,25,-58,5
0.055166,38,-157,8254,63,-65,-26
0.055307,-19,-143,8263,44,-77,-32
0.055445,52,-114,8301,12,-58,-45
0.055584,48,-155,8334,63,-103,-39
0.055723,-9,-116,8310,6,-20,37
0.055863,43,-140,8281,69,-148,-77
0.056006,55,-89,8249,12,-1,5
0.056141,80,-114,8298,63,-71,-20
0.056282,16,-161,8382,56,-103,-32
0.05642,27,-198,8302,12,-39,-32
0.056559,6,-140,8300,75,-122,-32
0.056699,27,-128,8349,38,-52,-7
0.056838,62,-115,8301,31,-39,-13
0.056977,63,-110,8316,82,-109,-45
0.057117,45,-134,8274,31,-58,-20
0.057256,72,-72,8329,38,-65,-20
0.057395,-2,-77,8310,31,-90,-20
0.057534,3,-110,8232,69,-77,-20
0.057674,-8,-128,8284,31,-65,-32
0.057813,59,-112,8302,12,-46,-13
0.057952,8,-111,8320,75,-90,-32
0.058092,30,-128,8337,19,-39,-32
0.058231,123,-125,8340,56,-103,-1
0.05837,69,-136,8331,19,-71,-58
0.05851,56,-130,8340,69,-77,-13
0.058649,77,-142,8330,19,-58,-1
0.058789,32,-76,8343,63,-77,-45
0.058927,24,-135,8373,25,-65,-45
0.059067,22,-138,8295,56,-77,12
0.059206,52,-88,8265,50,-33,-13
0.059345,60,-104,8252,63,-116,-64
0.059485,-9,-167,8313,19,-77,24
0.059624,16,-112,8355,63,-65,-51
0.059763,0,-81,8313,19,-77,-20
0.059903,26,-90,8333,63,-77,-13
0.060042,81,-82,8336,38,-71,-32
0.060181,14,-122,8378,56,-58,18
0.06032,9,-116,8309,44,-90,-58
0.060462,-14,-136,8316,12,-65,12
0.0606,14,-129,8291,82,-65,-64
0.060738,43,-118,8323,12,-77,5
0.060878,29,-94,8276,75,-84,-45
0.061018,5,-167,8330,44,-58,-26
0.061158,-28,-141,8332,25,-71,18
0.061296,32,-145,8342,75,-71,-58
0.061435,112,-131,8309,12,-71,-32
0.061574,116,-42,8366,82,-65,-20
0.061713,80,-65,8331,12,-90,-20
0.061853,-33,-103,8343,38,-39,-1
0.061992,-25,-124,8347,75,-84,-45
0.062132,46,-146,8316,19,-90,-7
0.062271,1,-123,8278,69,-33,-26
0.06241,15,-96,8294,31,-103,-32
0.06255,11,-148,8298,19,-26,5
0.06269,22,-148,8341,113,-90,-20
0.062831,4,-96,8392,12,-65,-58
0.062967,10,-110,8336,56,-71,24
0.063107,20,-131,8304,12,-58,-45
0.063246,2,-119,8266,75,-58,-20
0.063385,34,-127,8267,-6,-71,-7
0.063525,57,-104,8300,82,-90,-26
0.063664,47,-151,8285,19,-26,-20
0.063805,11,-95,8307,56,-122,-32
0.063943,44,-63,8274,38,-14,5
0.064082,25,-85,8269,6,-84,-39
0.064221,41,-147,8305,38,-71,-13
0.064362,29,-161,8280,56,-26,-39
0.0645,42,-138,8358,56,-116,-20
0.064639,54,-113,8371,-6,-39,-1
0.064779,30,-123,8351,75,-84,-70
0.064918,18,-130,8346,-6,-58,5
0.065057,63,-137,8343,63,-97,-26
0.065196,62,-105,8302,50,-52,-26
0.065338,42,-116,8251,50,-116,-39
0.065477,37,-84,8286,44,-26,18
0.065614,70,-105,8309,19,-71,-26
0.065754,59,-110,8284,44,-52,-1
0.065893,61,-95,8342,69,-77,-58
0.066033,-13,-151,8346,38,-103,-51
0.066172,14,-141,8299,38,-20,50
0.066311,71,-162,8260,69,-103,-96
0.066451,22,-174,8254,0,-26,5
0.066589,73,-191,8247,63,-116,-20
0.066729,-5,-126,8263,56,-20,-26
0.066868,-9,-140,8342,0,-77,-13
0.067007,10,-108,8352,94,-71,-39
0.067147,42,-98,8340,50,-84,-26
0.067288,84,-134,8313,6,-26,-1
0.067425,32,-131,8263,56,-128,-20
0.067565,25,-115,8290,44,-58,-64
0.067704,37,-144,8296,31,-71,37
0.067843,49,-101,8313,44,-58,-45
0.067983,-6,-89,8351,56,-65,-26
0.068122,11,-164,8299,19,-103,5
0.06826,35,-88,8336,69,-65,-64
0.068401,28,-94,8313,0,-46,31
0.06854,82,-139,8291,75,-122,-70
0.068679,82,-127,8291,69,-52,-1
0.068819,77,-118,8277,12,-46,-7
0.068958,37,-112,8286,56,-97,-32
0.069097,14,-101,8310,31,-52,-1
0.069236,62,-127,8276,56,-71,-51
0.069376,60,-97,8317,75,-97,-20
0.069515,36,-154,8299,-13,-39,12
0.069654,34,-133,8303,100,-77,-51
0.069794,18,-115,8246,6,-90,-13
0.069933,31,-83,8293,63,-71,-13
0.070072,47,-99,8296,44,-65,-32
0.070212,26,-76,8329,31,-77,-20
0.070351,62,-59,8278,50,-90,-26
0.07049,22,-102,8254,38,-58,-13
0.07063,59,-97,8249,50,-90,-26
0.070769,12,-157,8309,50,-58,-13
0.070909,-19,-138,8292,25,-90,-26
0.071047,49,-106,8312,56,-71,-20
0.071187,68,-118,8297,31,-39,-20
0.071326,14,-128,8292,56,-65,-7
0.071465,55,-150,8253,56,-109,-51
0.071604,10,-80,8321,12,-33,18
0.071744,37,-137,8338,88,-109,-89
0.071883,63,-105,8339,25,-52,18
0.072023,-4,-126,8259,63,-77,-26
0.072162,28,-104,8244,38,-71,12
0.072302,37,-93,8348,38,-90,-45
0.072441,5,-101,8253,56,-14,12
0.07258,0,-191,8325,19,-122,-32
0.072719,28,-107,8318,38,-39,-32
0.072859,35,-122,8313,50,-109,12
0.072998,25,-161,8309,50,-39,-20
0.073137,12,-140,8272,38,-77,-51
0.073276,53,-130,8276,69,-90,24
0.073416,14,-119,8236,38,-77,-64
0.073555,36,-163,8292,44,-46,-32
0.073696,53,-134,8276,6,-65,12
0.073833,42,-52,8255,63,-58,-70
0.073973,58,-132,8303,31,-109,-7
0.074112,25,-111,8328,63,-14,-20
0.074252,43,-110,8332,38,-77,-32
0.074392,42,-151,8331,56,-71,-26
0.07453,44,-178,8340,63,-52,-13
0.074669,4,-145,8326,0,-77,-1
0.074809,32,-126,8356,75,-71,-70
0.074948,45,-160,8320,31,-39,43
0.075088,19,-110,8317,56,-128,-58
0.075227,32,-96,8336,12,-39,5
0.075367,28,-74,8312,82,-97,-39
0.075505,90,-148,8320,19,-71,-7
0.075645,126,-88,8287,44,-52,-39
0.075784,55,-64,8325,19,-71,5
0.075924,44,-105,8313,75,-84,-51
0.076062,62,-140,8294,50,-58,-1
0.076202,35,-142,8300,31,-46,-26
0.076343,34,-146,8274,44,-90,-13
0.07648,4,-107,8318,12,-46,-32
0.07662,26,-124,8359,94,-71,-13
0.076759,26,-112,8306,-38,-71,-51
0.076899,-24,-135,8257,100,-77,5
0.077038,14,-138,8239,44,-90,-45
0.077177,1,-119,8291,12,-52,-7
0.077316,14,-109,8289,56,-58,-26
0.077456,31,-154,8376,0,-97,-20
0.077595,54,-120,8324,56,-20,-7
0.077734,-7,-121,8256,75,-97,-58
0.077874,17,-115,8292,38,-84,-13
0.078013,-7,-176,8297,56,-46,-20
0.078152,-41,-118,8318,25,-128,-32
0.078292,7,-117,8350,63,-26,-20
0.078431,30,-170,8400,25,-84,-1
0.07857,105,-101,8339,75,-77,-58
0.078709,25,-130,8279,38,-77,18
0.078849,49,-91,8288,12,-52,-45
0.078988,6,-107,8319,75,-77,-20
0.079127,52,-139,8380,25,-84,-13
0.079267,59,-119,8350,31,-65,-26
0.079406,46,-83,8297,63,-77,-20
0.079545,9,-140,8333,25,-39,-7
0.079685,25,-146,8325,75,-84,-39
0.079824,50,-126,8308,25,-71,-20
0.079963,4,-125,8337,38,-77,-7
0.080103,69,-187,8296,50,-65,-39
0.080242,-35,-166,8356,69,-90,12
0.080382,18,-131,8321,0,-58,-39
0.08052,18,-145,8325,88,-58,12
0.08066,30,-110,8347,12,-58,-70
0.080799,4,-55,8347,38,-77,24
0.080938,-46,-109,8311,25,-46,-51
0.081078,22,-173,8248,119,-84,-26
0.081217,36,-83,8264,-19,-65,-26
0.081356,65,-116,8326,63,-39,-7
0.081496,66,-150,8357,50,-103,-20
0.081635,50,-118,8352,0,-33,-1
0.081774,-6,-143,8344,107,-103,-70
0.081913,24,-124,8352,6,-58,18
0.082053,67,-96,8292,82,-84,-13
0.082192,22,-110,8302,25,-52,-39
0.082332,-1,-100,8270,38,-65,-7
0.082472,43,-105,8283,63,-103,-45
0.08261,54,-128,8304,12,-39,-7
0.082749,6,-79,8346,82,-71,-32
0.082888,-9,-84,8307,6,-84,-1
0.08303,0,-155,8344,75,-84,-32
0.083167,31,-104,8324,63,-65,-39
0.083307,57,-114,8296,-13,-20,18
0.083446,82,-107,8308,50,-122,-39
0.083585,36,-139,8290,25,-58,-26
0.083726,43,-106,8273,69,-58,-13
0.083864,-4,-153,8252,31,-65,-13
0.084004,-42,-143,8300,31,-90,-39
0.084143,49,-156,8324,107,-109,-20
0.084282,62,-139,8330,12,-39,5
0.084421,46,-88,8281,25,-71,-45
0.08456,25,-138,8279,56,-90,-1
0.0847,-29,-120,8329,50,-33,-45
0.084839,3,-133,8324,44,-97,-13
0.084978,0,-154,8334,75,-52,-20
0.085118,44,-186,8351,6,-65,-26
0.085259,33,-126,8296,75,-103,-26
0.085396,-21,-164,8319,25,-46,-13
0.085536,-4,-108,8337,38,-103,-7
0.085675,24,-201,8348,31,-20,-45
0.085815,57,-125,8329,44,-109,-1
0.085954,37,-142,8341,44,-46,-32
0.086093,19,-106,8375,19,-71,-20
0.086232,86,-153,8358,94,-90,-39
0.086371,52,-121,8345,12,-20,12
0.086511,28,-118,8269,94,-128,-45
0.08665,-1,-72,8280,-19,-33,5
0.086789,-2,-115,8339,63,-77,-51
0.086929,8,-152,8283,31,-84,-7
0.087068,9,-116,8294,69,-58,-39
0.087207,18,-133,8352,25,-84,-13
0.087347,13,-138,8374,19,-65,-13
0.087486,45,-106,8367,75,-71,-45
0.087625,15,-105,8351,69,-84,-7
0.087765,22,-99,8294,-13,-52,-45
0.087904,28,-127,8354,75,-122,-13
0.088043,31,-80,8324,12,-26,12
0.088182,3,-73,8310,50,-65,-39
0.088322,14,-51,8305,75,-122,-64
0.088461,58,-126,8287,25,-39,18
0.0886,49,-143,8331,56,-58,-7
0.08874,48,-122,8312,-6,-52,-26
0.088879,47,-72,8262,113,-109,-58
0.089018,79,-143,8320,12,-65,-1
0.089158,2,-141,8327,44,-65,-32
0.089297,44,-151,8335,82,-65,-32
0.089436,49,-120,8256,6,-46,12
0.089576,6,-56,8222,44,-52,-26
0.089715,3,-122,8222,44,-128,-64
0.089854,0,-135,8276,44,-33,5
0.089994,-20,-139,8318,56,-77,-32
0.090133,22,-168,8278,31,-52,12
0.090272,12,-145,8251,31,-84,-70
0.090411,-3,-162,8290,94,-84,5
0.090552,8,-130,8284,6,-84,-32
0.090691,2,-154,8316,25,-39,-7
0.090829,59,-158,8265,38,-90,-32
0.090969,17,-139,8310,50,-90,-1
0.091108,44,-151,8377,50,-65,-7
0.091247,9,-127,8359,50,-84,-32
0.091386,-2,-72,8353,25,-33,-13
0.091526,29,-56,8328,113,-122,-32
0.091665,39,-69,8339,6,-52,-20
0.091804,52,-91,8330,19,-58,-26
0.091943,67,-130,8319,63,-71,-13
0.092083,15,-122,8279,56,-84,-13
0.092222,14,-71,8301,50,-77,-39
0.092362,-42,-157,8265,6,-77,-20
0.092501,-15,-202,8312,75,-77,-7
0.092642,48,-159,8295,19,-65,-45
0.092779,-42,-140,8274,56,-46,5
0.09292,-8,-177,8341,63,-116,-51
0.093058,-22,-139,8344,-6,-33,-13
0.093197,-17,-114,8325,82,-71,-1
0.093338,15,-103,8252,38,-71,-70
0.093476,33,-100,8300,31,-46,18
0.093615,1,-140,8292,50,-84,-32
0.093756,-3,-118,8331,38,-52,-7
0.093894,-23,-123,8323,50,-103,-45
0.094034,-55,-106,8295,38,-46,-26
0.094172,-41,-124,8255,69,-90,-7
0.094313,19,-112,8254,12,-46,-32
0.094451,-39,-175,8273,63,-97,-26
0.094591,11,-171,8329,63,-65,-39
0.09473,24,-113,8408,44,-77,24
0.094869,-22,-92,8311,38,-77,-58
0.095009,74,-38,8287,38,-71,-20
0.095148,84,-129,8281,38,-65,-26
0.095287,46,-111,8275,31,-71,-32
0.095426,28,-85,8280,44,-52,5
0.095566,19,-131,8288,50,-97,-32
0.095706,48,-147,8314,38,-52,-20
0.095844,15,-107,8266,50,-84,-26
0.095984,8,-120,8303,19,-58,-1
0.096123,-54,-125,8318,63,-77,-45
0.096262,-37,-74,8296,44,-90,-20
0.096402,13,-95,8353,50,-65,-39
0.096541,55,-73,8306,31,-58,5
0.09668,49,-86,8272,63,-46,-20
0.096819,24,-64,8271,38,-122,-26
0.096959,23,-91,8276,88,-65,-39
0.097098,12,-14,8352,19,-39,-1
0.097238,-17,-47,8298,56,-97,-13
0.097377,20,-53,8262,38,-84,-51
0.097516,53,-126,8300,75,-71,5
0.097655,26,-98,8325,6,-77,-32
0.097795,9,-75,8312,63,-71,-20
0.097934,35,-107,8265,19,-65,-7
0.098073,61,-72,8289,44,-58,-26
0.098212,-11,-76,8285,63,-109,-58
0.098352,62,-121,8292,31,-58,-13
0.098491,31,-121,8369,44,-58,-13
0.098631,17,-92,8313,50,-103,-51
0.09877,6,-64,8299,25,-46,5
0.098909,1,-205,8295,38,-90,-45
0.099049,-10,-154,8304,50,-103,-26
0.099188,-2,-125,8368,31,-14,12
0.099327,47,-46,8293,19,-97,-39
0.09947,14,-36,8254,75,-97,-45
0.099606,18,-99,8303,12,-77,18
0.099745,53,-139,8342,19,-52,-58
0.099884,38,-144,8347,75,-77,-20
0.100024,15,-135,8302,63,-103,-26
0.100163,38,-127,8251,0,-39,-1
0.100302,77,-93,8260,50,-90,-13
0.100441,16,-74,8281,50,-90,-77
0.100581,43,-123,8303,69,-52,24
0.10072,39,-83,8233,-6,-97,-58
0.100859,42,-81,8303,38,-77,18
0.100999,27,-74,8295,50,-84,-58
0.101138,24,-92,8327,25,-58,5
0.101277,7,-102,8258,38,-90,-51
0.101417,28,-47,8265,88,-71,-7
0.101556,41,-45,8320,19,-58,-1
0.101695,19,-57,8341,25,-84,-51
0.101834,26,-25,8290,69,-84,-1
0.101974,66,-42,8337,19,-46,-70
0.102113,72,-46,8336,25,-116,31
0.102253,32,-32,8300,107,-58,-70
0.102393,-19,-80,8343,-32,-65,-13
0.102531,-1,-70,8300,56,-84,5
0.102671,90,-62,8249,38,-77,-13
0.10281,59,-26,8274,50,-65,-64
0.102951,30,-22,8331,56,-97,18
0.103088,-45,-67,8323,56,-71,-39
0.10323,40,-39,8307,-6,-71,-39
0.103367,49,-38,8286,63,-90,-13
0.103506,52,-64,8376,38,-52,-45
0.103646,34,-21,8314,44,-97,-1
0.103786,26,-71,8340,12,-65,-39
0.103924,55,-15,8276,75,-46,-26
0.104064,69,-16,8264,56,-116,-20
0.104203,79,62,8274,38,-58,-39
0.104342,78,-3,8315,25,-52,12
0.104482,68,-23,8377,50,-71,-45
0.104621,42,-12,8340,56,-77,-45
0.10476,74,66,8295,-13,-52,-20
0.1049,120,42,8273,107,-97,-1
0.105039,113,81,8306,6,-58,-32
0.105182,75,36,8298,69,-77,-58
0.105319,29,119,8314,12,-39,37
0.105457,43,102,8336,63,-65,-83
0.105596,102,149,8290,31,-90,-26
0.105735,94,135,8277,44,-58,24
0.105875,91,126,8310,38,-52,-77
0.106014,86,75,8311,38,-52,12
0.106153,107,138,8352,100,-97,-77
0.106293,53,127,8351,-13,-33,37
0.106432,57,142,8353,44,-116,-51
0.106571,92,186,8365,75,-65,-45
0.106711,63,147,8323,19,-77,-7
0.10685,31,178,8283,38,-26,-39
0.106989,44,158,8338,69,-122,-51
0.107128,45,193,8307,19,-39,-20
0.107268,46,237,8293,63,-84,-32
0.107407,27,162,8251,38,-84,-26
0.107546,43,139,8286,50,-65,-32
0.107686,5,184,8301,44,-77,-51
0.107825,19,176,8327,50,-77,-20
0.107964,28,245,8246,63,-52,-45
0.108104,31,195,8279,-6,-39,-20
0.108243,46,162,8246,82,-97,-26
0.108382,16,177,8222,25,-39,-45
0.108521,7,197,8272,69,-109,-39
0.108661,-3,210,8263,0,-33,-1
0.1088,18,153,8308,107,-103,-45
0.108939,28,146,8206,31,-97,-51
0.109079,8,194,8191,38,-26,-20
0.109218,21,159,8285,25,-109,-39
0.109357,2,180,8271,69,-33,-51
0.109497,15,153,8257,50,-71,-39
0.109636,-42,136,8238,38,-90,-20
0.109775,-17,185,8292,31,-77,-51
0.109915,-21,156,8259,69,-90,-51
0.110054,-22,124,8217,19,-52,-13
0.110193,-54,126,8259,82,-52,-58
0.110336,-15,95,8251,56,-122,-7
0.110472,-6,56,8244,38,-52,-70
0.110612,-55,55,8223,25,-58,-26
0.11075,-19,68,8198,38,-84,-58
0.11089,-53,55,8216,75,-58,-1
0.111029,-47,71,8205,31,-109,-140
0.111169,-14,24,8246,44,-52,50
0.111308,-18,41,8310,50,-39,-77
0.111447,3,11,8250,50,-122,-32
0.111586,-22,26,8246,38,-46,-20
0.111725,7,44,8292,31,-65,-58
0.111865,-30,-15,8338,56,-84,-26
0.112007,-18,17,8340,69,-97,-51
0.112144,-9,10,8278,25,-39,-64
0.112284,12,4,8293,44,-52,5
0.112423,32,-10,8257,69,-116,-83
0.112561,-2,83,8252,12,-1,-32
0.112701,87,54,8299,75,-128,-70
0.112841,88,101,8299,6,-39,-7
0.112979,97,6,8373,75,-109,-58
0.113119,34,49,8308,19,-46,-64
0.113258,50,-10,8353,69,-65,-26
0.113397,68,111,8347,38,-77,-51
0.113537,88,126,8343,50,-77,-58
0.113676,44,213,8332,50,-71,-13
0.113816,12,160,8308,56,-52,-51
0.113954,78,191,8354,56,-109,-64
0.114094,64,193,8359,6,-26,-13
0.114233,14,253,8405,88,-103,-70
0.114372,-13,287,8370,31,-52,-26
0.114512,52,307,8354,44,-97,-70
0.114651,-1,370,8399,31,-33,-7
0.11479,15,347,8351,44,-103,-51
0.11493,36,313,8360,50,-97,-32
0.115069,14,383,8386,56,-77,-39
0.115208,31,394,8306,50,-52,-58
0.115348,23,358,8388,25,-77,12
0.115487,75,416,8330,44,-65,-64
0.115626,53,362,8344,50,-103,-70
0.115765,53,392,8339,75,-46,-13
0.115905,73,432,8343,6,-58,-32
0.116044,120,359,8328,75,-109,-45
0.116183,98,488,8330,50,-97,-26
0.116323,150,528,8311,12,-52,-39
0.116462,165,502,8276,63,-71,-51
0.116601,130,517,8256,38,-97,-20
0.116741,148,446,8284,44,-33,-45
0.11688,166,472,8277,19,-84,-20
0.117019,133,515,8255,107,-109,-39
0.117159,165,507,8209,-19,-58,-39
0.117298,136,486,8265,69,-71,-51
0.117437,155,415,8205,6,-58,-7
0.117577,193,493,8196,56,-97,-45
0.117716,218,512,8222,69,-52,-45
0.117855,190,520,8338,0,-84,-20
0.117994,213,512,8301,82,-52,-64
0.118134,182,468,8287,25,-90,-26
0.118273,161,437,8273,50,-71,-20
0.118412,136,458,8283,44,-77,-26
0.118552,142,418,8273,63,-52,-51
0.118691,119,441,8266,38,-122,-32
0.11883,101,428,8248,38,-26,-20
0.11897,126,473,8291,19,-90,-58
0.119109,108,407,8292,56,-58,-7
0.119248,98,457,8316,50,-65,-45
0.119388,89,494,8306,50,-71,-64
0.119527,122,501,8292,50,-65,-32
0.119666,96,538,8275,31,-90,5
0.119805,70,476,8302,63,-33,-58
0.119945,54,423,8306,25,-128,-26
0.120084,3,434,8302,25,-46,-39
0.120223,95,448,8199,107,-97,-51
0.120363,60,451,8237,6,-33,-32
0.120502,-12,449,8282,100,-90,-1
0.120641,-42,380,8287,0,-52,-58
0.120781,25,351,8290,50,-90,-32
0.12092,-12,419,8299,56,-71,-32
0.121059,-48,472,8323,19,-46,-58
0.121199,-43,402,8378,82,-77,-1
0.121338,-12,434,8255,25,-103,-64
0.121477,-19,389,8296,56,-77,-51
0.121616,12,460,8311,25,-71,-7
0.121756,1,454,8351,56,-71,-45
0.121895,-4,458,8337,6,-65,-32
0.122034,18,431,8306,82,-97,-45
0.122173,3,414,8362,44,-65,-32
0.122313,63,467,8408,50,-33,-45
0.122452,38,488,8375,82,-154,-39
0.122592,65,455,8394,0,18,-7
0.122731,39,446,8417,69,-141,-64
0.12287,38,456,8370,50,-46,-45
0.12301,39,368,8333,25,-84,-20
0.123149,56,423,8326,38,-90,-77
0.123288,24,467,8387,75,-26,12
0.123428,18,489,8369,44,-122,-102
0.123567,48,486,8331,-19,-46,24
0.123706,16,470,8276,113,-90,-77
0.123845,115,486,8273,6,-71,-39
0.123985,71,498,8263,56,-52,-39
0.124124,45,502,8282,63,-109,-26
0.124263,88,550,8299,56,-46,-64
0.124403,66,571,8289,38,-90,-32
0.124542,60,510,8226,25,-58,-32
0.124681,85,542,8246,75,-90,-32
0.124821,93,557,8270,50,-84,-70
0.12496,81,534,8284,31,-65,-20
0.125099,72,562,8241,38,-58,-26
0.125239,20,522,8231,50,-97,-51
0.125378,30,527,8236,63,-65,-51
0.125517,69,575,8249,38,-97,-58
0.125656,35,547,8250,19,-20,-1
0.125796,15,592,8248,50,-84,-51
0.125935,58,594,8231,56,-122,-70
0.126074,77,618,8184,44,-14,5
0.126214,157,626,8251,19,-39,-51
0.126353,72,573,8180,44,-84,-51
0.126492,93,604,8219,69,-90,-64
0.126632,34,615,8325,69,-39,12
0.126771,31,632,8292,12,-71,-96
0.126912,72,624,8270,69,-97,-20
0.12705,65,617,8302,19,-26,-39
0.127189,29,574,8277,56,-103,-58
0.127328,-7,585,8335,12,-58,-20
0.127467,0,563,8329,75,-71,-83
0.127607,51,550,8341,19,-26,-20
0.127746,25,641,8351,69,-109,-13
0.127886,4,619,8328,69,-97,-70
0.128025,46,525,8318,-6,-52,-26
0.128164,-28,570,8294,50,-58,-13
0.128303,15,554,8368,88,-71,-64
0.128443,41,542,8299,0,-77,-20
0.128582,41,642,8284,38,-52,-64
0.128721,43,604,8378,88,-65,-13
0.128861,31,717,8385,25,-109,-64
0.129,106,709,8389,19,-58,-26
0.129139,129,721,8439,44,-84,-39
0.129278,183,794,8454,94,-71,-45
0.129418,194,743,8453,0,-90,-64
0.129557,166,844,8371,50,-26,12
0.129696,209,816,8451,44,-122,-64
0.129836,169,902,8383,19,-39,-39
0.129975,188,872,8400,94,-71,-64
0.130114,223,860,8394,25,-77,-51
0.130254,176,844,8339,82,-90,-51
0.130393,255,834,8337,0,-58,-13
0.130532,195,782,8280,50,-97,-58
0.130672,136,893,8192,63,-33,-64
0.130811,114,915,8183,38,-103,-32
0.13095,53,896,8162,25,-33,-20
0.131089,40,931,8170,31,-122,-70
0.131229,35,926,8151,75,-33,-20
0.131368,14,968,8165,75,-97,-108
0.131507,52,961,8122,19,-52,-1
0.131648,67,864,8140,50,-90,-64
0.131786,71,932,8120,19,-52,-20
0.131925,108,885,8172,63,-65,-64
0.132065,85,932,8199,75,-122,-64
0.132204,22,952,8201,6,-7,-26
0.132343,38,956,8243,82,-103,-64
0.132483,23,916,8275,12,-65,-13
0.132626,14,968,8294,38,-39,-83
0.132761,-31,880,8296,63,-97,-13
0.132901,-23,920,8278,25,-103,-70
0.13304,28,874,8363,31,-20,-7
0.133179,99,957,8389,56,-84,-70
0.133318,86,902,8350,63,-109,-32
0.133458,100,935,8368,31,-26,-51
0.133597,57,877,8294,56,-84,-20
0.133736,24,916,8358,31,-77,-58
0.133876,66,911,8341,31,-26,-20
0.134015,130,917,8412,75,-141,-45
0.134154,143,936,8385,69,-58,-70
0.134294,220,961,8407,-13,-52,-7
0.134433,185,960,8341,50,-58,-70
0.134572,196,919,8352,82,-90,-45
0.134712,188,985,8441,-6,-58,-45
0.134851,209,981,8406,69,-71,-26
0.13499,277,1052,8384,50,-90,-70
0.13513,326,1083,8393,25,-65,-51
0.135269,340,1089,8331,75,-58,-51
0.135408,344,1138,8472,19,-84,-20
0.135548,392,1184,8519,75,-58,-96
0.135687,428,1192,8453,25,-65,-39
0.135826,461,1225,8410,50,-46,-7
0.135965,401,1248,8356,38,-122,-134
0.136105,349,1171,8330,69,-39,-7
0.136244,305,1216,8220,44,-103,-77
0.136384,192,1191,8194,6,-39,-58
0.136523,179,1226,8190,56,-65,-58
0.136662,108,1204,8090,75,-65,-51
0.136801,98,1212,8086,38,-90,-70
0.136941,38,1240,8089,0,-33,-70
0.13708,9,1282,8109,50,-71,-51
0.137219,9,1174,8157,63,-84,-58
0.137359,-44,1103,8224,31,-52,-39
0.137498,-51,1198,8116,56,-77,-102
0.137637,-54,1227,8038,31,-65,-45
0.137776,-144,1200,8036,50,-103,-70
0.137916,-261,1142,8011,6,-20,-51
0.138055,-291,1126,7996,56,-109,-58
0.138194,-283,1081,8047,75,-58,-102
0.138336,-305,1100,8113,12,-65,-32
0.138473,-342,1135,8156,75,-97,-70
0.138612,-282,1029,8242,12,-77,-64
0.138752,-300,1050,8228,75,-65,-83
0.138891,-368,1003,8205,31,-58,-32
0.13903,-377,937,8284,44,-90,-96
0.139169,-440,902,8354,19,-58,-64
0.139309,-424,911,8382,69,-65,-45
0.139448,-361,867,8356,50,-77,-77
0.139587,-353,841,8369,25,-71,-51
0.139727,-389,829,8492,12,-39,-58
0.139866,-435,860,8571,88,-128,-70
0.140005,-416,840,8449,19,-26,-70
0.140145,-406,771,8468,56,-116,-32
0.140284,-307,758,8571,25,-58,-70
0.140423,-351,831,8543,94,-71,-51
0.140563,-364,792,8439,19,-58,-64
0.140703,-374,744,8506,19,-52,-64
0.140841,-417,760,8505,50,-58,-64
0.140981,-461,732,8384,38,-84,-39
0.14112,-418,693,8293,56,-77,-45
0.141261,-376,679,8318,50,-71,-96
0.141398,-292,782,8433,12,-26,-13
0.14154,-352,842,8405,82,-128,-77
0.141677,-303,832,8438,38,-7,-26
0.141817,-247,897,8401,19,-103,-64
0.141957,-178,853,8340,75,-71,-96
0.142095,-153,822,8414,44,-90,-7
0.142234,-120,876,8520,-6,-14,-64
0.142374,-121,814,8534,75,-109,-83
0.142513,-84,807,8437,44,-46,-20
0.142652,-13,892,8361,31,-52,-58
0.142793,-29,904,8375,56,-71,-45
0.142931,-92,790,8343,50,-90,-51
0.14307,-55,807,8275,38,-46,-102
0.14321,-72,788,8306,56,-71,-7
0.143349,-90,743,8242,19,-84,-77
0.143488,-90,793,8261,56,-52,-45
0.143628,-95,754,8139,44,-71,-39
0.143769,-38,735,8193,69,-77,-89
0.143906,-112,808,8146,50,-52,-39
0.144045,-119,694,8235,-6,-84,-89
0.144185,-164,650,8283,75,-84,-64
0.144324,-174,642,8205,38,-52,-39
0.144465,-220,646,8120,44,-84,-70
0.144604,-179,688,8054,44,-84,-83
0.144742,-200,612,8161,50,-39,-32
0.144881,-194,576,8247,6,-65,-51
0.145021,-203,572,8283,69,-97,-89
0.14516,-76,573,8291,25,-39,-45
0.145299,-68,514,8270,69,-58,-39
0.145439,-71,542,8270,38,-109,-102
0.145579,-190,452,8363,38,-39,-39
0.145718,-171,530,8485,50,-71,-45
0.145856,-110,468,8444,31,-71,-83
0.145996,-102,433,8255,63,-71,-64
0.146135,-95,474,8262,19,-71,-20
0.146274,-202,379,8418,38,-77,-102
0.146414,-165,398,8509,75,-77,-45
0.146553,-153,400,8416,63,-39,-64
0.146692,-121,579,8368,19,-103,-70
0.146831,-22,574,8400,50,-46,-96
0.146971,-70,571,8356,44,-77,-32
0.14711,12,650,8309,69,-90,-64
0.147249,45,680,8406,19,-77,-58
0.147389,129,788,8480,75,-77,-58
0.147528,112,777,8510,25,-58,-51
0.147667,110,847,8463,63,-65,-83
0.147806,89,827,8446,56,-84,-64
0.147946,11,745,8427,31,-71,-70
0.148085,-92,702,8378,19,-77,-32
0.148224,-114,581,8373,75,-90,-102
0.148364,-186,572,8369,31,-58,-45
0.148503,-228,628,8295,31,-65,-51
0.148642,-188,713,8171,75,-122,-102
0.148782,-206,710,8156,19,-39,-45
0.148921,-306,679,8075,63,-58,-70
0.14906,-296,689,8190,19,-77,-58
0.1492,-299,711,8175,50,-77,-77
0.149339,-221,693,8193,69,-84,-70
0.149478,-45,735,8234,12,-84,-70
0.149618,-79,743,8212,50,-46,-39
0.149757,45,548,8318,44,-84,-89
0.149896,50,588,8354,12,-65,-32
0.150036,113,577,8264,82,-58,-89
0.150176,114,615,8387,63,-65,-51
0.150316,105,624,8396,0,-84,-45
0.150455,72,528,8389,31,-33,-89
0.150593,101,577,8459,38,-109,-70
0.150735,61,589,8321,69,-71,-77
0.150874,-17,493,8335,38,-52,-51
0.151011,-114,463,8268,44,-65,-77
0.15115,-134,489,8094,56,-77,-96
0.151289,-106,568,8008,-6,-58,-26
0.151429,-144,539,8039,119,-71,-102
0.151568,-211,458,8001,-19,-77,-45
0.151707,-245,404,8009,50,-65,-51
0.151847,-296,394,7916,50,-109,-70
0.151987,-205,326,7964,31,-52,-89
0.152125,-215,412,7918,44,-90,-70
0.152265,-134,422,7959,19,-58,-39
0.152404,-133,316,8122,69,-97,-96
0.152543,-50,352,8349,31,-65,-39
0.152682,62,328,8573,50,-71,-64
0.152823,90,388,8669,31,-84,-89
0.152961,267,570,8686,31,-71,-70
0.153101,474,653,8782,6,-77,-32
0.15324,576,739,8919,82,-52,-121
0.153379,645,707,8955,69,-77,-70
0.153525,661,746,8957,50,-71,-51
0.153662,639,715,8865,38,-46,-96
0.153797,677,762,8846,44,-90,-121
0.153936,563,720,8716,31,-58,-45
0.154077,347,636,8569,50,-33,-77
0.154215,240,622,8488,69,-97,-108
0.154355,161,580,8401,25,-39,-70
0.154493,87,587,8402,56,-84,-89
0.154634,102,624,8376,63,-33,-89
0.154772,74,628,8385,25,-97,-58
0.154913,53,718,8348,31,-52,-127
0.155052,43,713,8381,100,-97,-89
0.15519,122,780,8410,-25,-20,-51
0.155331,199,750,8387,82,-77,-108
0.155469,245,776,8353,50,-84,-96
0.15561,248,805,8246,50,-90,-121
0.155747,278,832,8119,25,-33,-26
0.155886,244,723,8109,63,-90,-121
0.156027,251,774,8153,31,-58,-89
0.156166,290,839,8280,50,-90,-89
0.156305,196,879,8210,31,-26,-77
0.156444,229,827,8007,44,-77,-83
0.156583,277,889,7825,69,-71,-89
0.156724,228,904,7830,38,-52,-121
0.156862,80,745,8019,25,-58,-70
0.157004,11,700,8026,88,-77,-115
0.157143,82,706,7913,12,-52,-77
0.15728,-17,789,7940,63,-103,-96
0.157419,41,785,7932,38,-58,-127
0.157558,61,827,7964,6,-58,-39
0.157697,46,862,8070,88,-84,-115
0.157837,67,757,8053,19,-90,-115
0.157976,166,700,8154,56,-58,-64
0.158115,109,666,8271,75,-58,-102
0.158256,140,742,8213,12,-33,-96
0.158394,169,630,8194,88,-103,-115
0.158534,142,642,8253,12,-46,-45
0.158674,40,531,8271,50,-103,-140
0.158813,33,504,8306,31,-52,-96
0.158951,8,456,8336,69,-84,-83
0.159094,116,468,8357,19,-58,-96
0.15923,16,517,8365,69,-90,-121
0.159369,-25,446,8319,25,-52,-89
0.15951,22,541,8352,12,-52,-70
0.159648,-18,580,8166,56,-84,-146
0.159787,-83,615,8217,44,-33,-83
0.159926,-115,631,8230,38,-116,-115
0.160066,-191,521,8265,38,-84,-127
0.160205,-277,532,8234,19,-39,-26
0.160345,-300,583,8238,63,-109,-171
0.160484,-275,635,8278,25,-77,-70
0.160623,-371,502,8314,50,-58,-96
0.160762,-341,506,8282,44,-77,-102
0.160902,-334,530,8246,31,-71,-102
0.161041,-276,555,8393,44,-103,-121
0.16118,-141,400,8571,69,-20,-83
0.16132,-214,419,8537,-13,-65,-83
0.161459,-152,412,8587,100,-90,-102
0.161598,-67,509,8506,50,-58,-102
0.161738,-63,423,8479,12,-65,-108
0.161877,-129,320,8450,38,-77,-89
0.162016,-303,362,8558,100,-90,-115
0.162156,-280,373,8528,12,-65,-108
0.162295,-139,494,8444,25,-33,-39
0.162434,-154,425,8463,88,-97,-108
0.162574,-160,327,8519,56,-90,-121
0.162713,-186,414,8562,50,-65,-83
0.162852,-83,455,8458,19,-65,-89
0.162992,-102,414,8370,50,-77,-108
0.163131,-78,621,8266,6,-52,-89
0.16327,-166,545,8284,63,-84,-89
0.163409,-176,630,8289,69,-46,-102
0.163548,-113,654,8255,56,-84,-102
0.163688,-56,551,8207,63,-90,-83
0.163827,-34,576,8260,38,-46,-102
0.163967,-112,646,8239,38,-65,-96
0.164106,-76,493,8340,75,-65,-83
0.164245,-85,560,8367,38,-77,-108
0.164385,-36,596,8239,50,-77,-89
0.164524,42,660,8185,50,-46,-96
0.164663,32,755,8152,56,-109,-115
0.164807,136,770,8104,31,-46,-77
0.164942,212,820,8013,38,-71,-83
0.165081,275,880,7928,63,-90,-127
0.16522,236,923,8016,38,-77,-70
0.165361,159,855,8066,75,-97,-146
0.165499,182,797,7994,0,-46,-77
0.165639,123,900,7990,56,-103,-115
0.165777,175,956,8067,31,-46,-108
0.165917,160,808,8204,50,-97,-115
0.166056,54,723,8349,38,-65,-89
0.166195,47,785,8417,31,-71,-134
0.166335,127,811,8529,63,-90,-140
0.166474,147,779,8528,12,-33,-45
0.166613,58,755,8501,88,-103,-153
0.166752,71,825,8644,-38,-26,-70
0.166893,129,877,8698,119,-90,-146
0.167032,185,959,8688,25,-58,-89
0.16717,192,1083,8534,56,-33,-134
0.167311,205,1169,8450,19,-103,-108
0.167449,94,1228,8469,31,-77,-108
0.167589,182,1262,8537,82,-52,-146
0.167728,224,1333,8405,63,-103,-102
0.167867,204,1374,8359,19,-46,-96
0.168006,234,1440,8352,69,-90,-127
0.168148,340,1574,8247,50,-58,-140
0.168285,323,1430,8304,0,-77,-108
0.168424,234,1410,8345,44,-46,-108
0.168564,245,1446,8403,44,-103,-146
0.168706,247,1571,8398,50,-65,-121
0.168844,265,1676,8371,6,-65,-115
0.168982,182,1681,8325,88,-52,-146
0.169121,107,1718,8340,-6,-71,-140
0.16926,129,1564,8306,88,-65,-108
0.169399,142,1587,8115,31,-58,-153
0.169539,109,1660,7918,56,-84,-115
0.169678,90,1688,7831,44,-71,-159
0.169818,-160,1594,7777,63,-77,-127
0.169958,-290,1520,7695,19,-71,-121
0.170096,-328,1646,7714,44,-77,-134
0.170235,-327,1609,7595,50,-65,-127
0.170376,-316,1612,7685,25,-71,-140
0.170514,-455,1608,7704,56,-77,-134
0.170654,-518,1453,7836,12,-58,-127
0.170793,-511,1424,8124,56,-97,-140
0.170933,-512,1418,8161,0,-46,-108
0.171071,-421,1335,8195,75,-84,-165
0.171211,-375,1362,8357,12,-52,-134
0.17135,-314,1378,8460,69,-109,-108
0.171489,-264,1422,8734,6,-33,-115
0.171629,-176,1392,8941,88,-135,-178
0.171768,-240,1332,8942,0,-20,-102
0.171907,-166,1480,8869,69,-77,-121
0.172047,-107,1575,8854,50,-65,-159
0.172186,-70,1589,8872,31,-52,-115
0.172325,-133,1701,8862,69,-77,-121
0.172464,-212,1782,8926,31,-52,-146
0.172604,-151,1959,8930,38,-109,-153
0.172743,37,2092,8743,38,-39,-89
0.172882,115,2092,8589,94,-77,-216
0.173022,96,2150,8465,-32,-46,-77
0.173161,0,1913,8434,75,-65,-153
0.1733,-136,1742,8542,75,-71,-146
0.17344,-145,1747,8441,44,-97,-127
0.173579,-141,1777,8112,50,-71,-153
0.173718,-224,1627,7958,63,-84,-146
0.173858,-276,1608,7876,31,-71,-121
0.173997,-241,1613,7835,63,-109,-165
0.174136,-327,1439,7958,12,-33,-108
0.174276,-339,1388,7987,31,-109,-184
0.174415,-446,1491,7819,38,-71,-127
0.174554,-378,1567,7740,25,-84,-146
0.174693,-452,1526,7658,94,-103,-115
0.174833,-441,1450,7671,-19,-33,-140
0.174972,-444,1409,7917,69,-128,-171
0.175111,-414,1578,8142,38,-26,-102
0.17525,-387,1552,8095,12,-97,-159
0.175391,-278,1504,7997,56,-52,-121
0.175529,-137,1636,8054,38,-52,-127
0.175669,19,1708,8449,82,-97,-165
0.175808,92,1807,8772,19,-33,-115
0.175947,106,1674,8743,31,-84,-134
0.176086,217,1865,8692,69,-90,-165
0.176226,172,2110,8651,44,-26,-153
0.176365,98,2046,8446,38,-109,-127
0.176504,154,2083,8289,63,-84,-115
0.176643,353,2056,8194,50,-52,-178
0.176783,203,1967,7928,56,-84,-178
0.176922,265,1982,7711,19,-84,-115
0.177063,184,1958,7704,0,-52,-153
0.177201,202,1805,7841,82,-128,-190
0.17734,-3,1561,8028,0,-39,-146
0.177481,-222,1527,8347,69,-109,-178
0.17762,-4,1780,8652,31,-77,-108
0.177758,-30,1774,8658,25,-20,-190
0.177897,-30,1689,8517,50,-148,-146
0.178037,56,1792,8455,38,-7,-153
0.178176,95,1677,8666,31,-84,-159
0.178317,-180,1534,8754,82,-71,-153
0.178455,-200,1677,8415,-13,-65,-165
0.178594,-248,1860,8201,63,-33,-134
0.178735,-481,1777,8232,56,-71,-190
0.178872,-459,1692,8198,12,-46,-108
0.179015,-513,1549,7972,82,-109,-203
0.179151,-384,1438,8047,0,-52,-153
0.179291,-472,1374,8048,69,-52,-146
0.17943,-375,1159,8087,25,-116,-178
0.179569,-450,1093,8314,38,-46,-146
0.179709,-324,1044,8464,50,-135,-165
0.179848,-342,1142,8579,12,-7,-146
0.179987,-326,1315,8689,63,-103,-184
0.180127,-425,1394,8554,44,-52,-140
0.180266,-404,1391,8472,25,-71,-171
0.180405,-392,1423,8475,50,-103,-153
0.180544,-384,1324,8671,56,-46,-153
0.180684,-336,1325,9054,63,-97,-178
0.180823,-408,1199,8946,6,-52,-159
0.180962,-338,1264,8628,63,-65,-140
0.181102,-223,1275,8486,69,-90,-153
0.181241,-380,1138,8392,19,-26,-165
0.18138,-234,1000,8510,75,-160,-190
0.18152,-100,1098,8556,63,-33,-134
0.181659,-89,1193,8499,31,-97,-159
0.181798,-107,1307,8542,56,-58,-165
0.181937,-129,1404,8440,63,-97,-159
0.182077,-23,1490,8512,31,-58,-165
0.182216,92,1547,8681,50,-71,-171
0.182356,5,1592,8597,19,-58,-146
0.182495,116,1644,8392,44,-97,-171
0.182634,82,1770,8164,63,-77,-184
0.182774,128,1549,7967,31,-58,-134
0.182913,83,1372,8000,50,-84,-171
0.183052,87,1342,7953,63,-97,-165
0.183191,126,1264,7819,12,-77,-165
0.183331,-65,1327,7605,38,-84,-171
0.18347,-39,1350,7447,19,-71,-127
0.183609,23,1253,7343,50,-103,-209
0.183749,-145,1063,7472,44,-58,-146
0.183888,-328,894,7721,12,-97,-178
0.184027,-389,995,8165,50,-58,-178
0.184167,-273,1177,8377,44,-65,-153
0.184306,-129,1112,8321,31,-77,-146
0.184446,-35,1193,8264,56,-39,-190
0.184584,207,1241,8307,56,-97,-134
0.184724,204,1253,8709,56,-39,-203
0.184863,134,1256,8871,31,-65,-140
0.185002,41,1263,8666,38,-39,-165
0.185142,121,1421,8606,75,-71,-171
0.185281,221,1271,8437,31,-52,-153
0.185423,191,1229,8174,100,-71,-209
0.185561,277,986,8022,0,-46,-127
0.185699,64,938,8295,6,-71,-184
0.185839,-97,798,8378,107,-109,-171
0.185978,57,980,8381,19,-65,-184
0.186117,141,1143,8254,12,-46,-134
0.186256,68,1089,8234,100,-109,-197
0.186395,148,1133,8397,6,-52,-146
0.186534,96,970,8350,44,-58,-209
0.186674,171,959,8648,50,-77,-127
0.186813,128,1075,8704,56,-90,-216
0.186952,100,1242,8638,25,-26,-102
0.187092,210,1270,8512,88,-103,-228
0.187231,156,1138,8330,31,-46,-146
0.187371,220,1066,8192,82,-97,-178
0.18751,283,991,8414,25,-39,-146
0.18765,148,889,8481,63,-77,-203
0.187788,-38,690,8439,56,-77,-171
0.187928,27,814,8342,69,-52,-190
0.188067,168,904,8419,6,-97,-115
0.188206,153,740,8423,69,-52,-209
0.188349,116,736,8332,31,-52,-171
0.188485,233,930,8399,75,-77,-165
0.188625,236,1048,8523,31,-65,-197
0.188763,161,984,8422,25,-33,-134
0.188903,110,1218,8239,69,-90,-190
0.189042,106,1208,8277,88,-46,-184
0.189182,-23,1143,8330,-19,-77,-153
0.189321,-31,1143,8098,75,-97,-184
0.189462,44,1079,7782,56,-46,-216
0.189599,29,904,7693,12,-58,-127
0.189739,-19,912,7811,69,-65,-203
0.189878,119,840,7760,6,-65,-159
0.190017,155,977,7915,82,-84,-197
0.190157,177,1175,8026,12,-77,-140
0.190297,306,1331,7900,44,-84,-216
0.190435,369,1613,8019,56,-84,-134
0.190576,407,1742,8363,31,-84,-222
0.190714,377,1932,8632,0,-20,-140
0.190853,454,1819,8545,113,-116,-216
0.190993,522,1984,8402,-6,-33,-197
0.191132,721,2096,8300,69,-58,-165
0.191273,698,1864,8211,19,-71,-197
0.191415,522,1419,8133,38,-52,-159
0.19155,485,1252,8194,25,-77,-190
0.19169,487,1352,8190,113,-128,-247
0.191829,392,1457,8137,-6,-33,-102
0.191968,83,1447,8166,69,-77,-285
0.192107,-166,1280,8074,44,-77,-115
0.192246,-191,1362,8143,19,-71,-216
0.192386,-52,1415,8520,12,-77,-197
0.192525,-33,1415,8686,25,-14,-146
0.192664,-2,1609,8770,75,-167,-222
0.192804,60,1782,8532,25,-46,-228
0.192943,372,2098,8349,31,-71,-127
0.193082,576,1823,8331,44,-84,-247
0.193221,517,1431,8490,25,-77,-171
0.193361,483,1111,8675,38,-71,-190
0.1935,285,1084,8880,88,-97,-222
0.19364,439,998,9009,6,-71,-178
0.193779,237,1156,8965,63,-90,-216
0.193918,289,1132,8882,63,-77,-190
0.194057,317,1172,8742,44,-46,-184
0.194197,305,1190,8541,19,-58,-184
0.194336,169,1128,8373,75,-97,-222
0.194475,71,1155,8059,31,-65,-216
0.194615,-132,1227,7948,50,-46,-159
0.194754,-46,1382,8158,38,-84,-228
0.194893,-101,1324,8186,50,-58,-190
0.195033,-132,1243,7881,6,-71,-197
0.195172,-7,1216,7816,75,-77,-197
0.195311,120,1258,8185,50,-65,-203
0.195452,79,1170,8454,56,-90,-178
0.19559,215,1026,8443,44,-65,-235
0.195729,188,1170,8430,50,-90,-178
0.195868,245,1121,8339,-6,-77,-203
0.196009,79,981,7865,88,-52,-178
0.196147,116,992,7515,56,-116,-260
0.196286,155,1046,7664,44,-52,-146
0.196425,-38,917,8082,19,-71,-203
0.196565,-157,927,8514,69,-77,-216
0.196704,-493,1104,8776,50,-26,-203
0.196843,-273,1065,8622,31,-97,-159
0.196984,-262,880,8233,82,-46,-254
0.197122,-187,759,8275,31,-77,-146
0.197262,-340,704,8541,63,-33,-184
0.197401,-426,747,8596,56,-116,-241
0.197542,-400,846,8560,75,-26,-140
0.197681,-295,1070,8550,44,-84,-216
0.197819,-133,1397,8337,44,-71,-171
0.197958,-16,1135,7809,75,-77,-197
0.198097,-18,973,7743,-19,-77,-178
0.198237,-119,930,7933,69,-71,-184
0.198376,-125,807,7935,31,-58,-209
0.198515,-86,1005,8036,31,-77,-159
0.198656,-234,1124,8109,56,-109,-203
0.198794,-355,1178,7615,50,-77,-190
0.198933,-267,1191,7163,-6,-77,-184
0.199073,-62,1255,7643,69,-46,-153
0.199212,-286,1380,7899,12,-77,-184
0.199351,-262,1343,7598,63,-71,-209
0.19949,-181,1646,7636,12,-116,-178
0.19963,-80,1984,8061,12,-39,-159
0.199769,90,1793,8174,75,-90,-190
0.199908,35,1216,8065,63,-65,-190
0.200048,-24,986,8282,6,-46,-146
0.200187,-164,1061,8430,50,-46,-171
0.200326,-286,830,8624,88,-122,-241
0.200466,-466,771,8885,-13,-46,-153
0.200605,-484,766,8796,69,-71,-165
0.200744,-331,873,8798,75,-71,-190
0.200884,-192,955,8896,25,-46,-165
0.201023,-364,1014,9057,82,-65,-165
0.201162,-484,989,8959,31,-58,-197
0.201302,-529,1007,8660,50,-58,-121
0.201441,-375,1270,8807,44,-116,-209
0.20158,-229,1442,8907,50,-52,-140
0.201719,-281,1203,8743,50,-103,-216
0.201859,-408,1136,8635,69,-39,-127
0.201998,-155,1143,8581,0,-58,-153
0.202137,109,1008,8563,82,-116,-228
0.202277,51,970,8902,0,-14,-121
0.202416,173,1086,9040,69,-109,-165
0.202555,-65,1090,8669,31,-84,-178
0.202695,11,1143,8703,88,-77,-159
0.202834,55,1383,8566,-19,-58,-165
0.202973,51,1394,8307,44,-65,-153
0.203112,124,1266,8431,69,-77,-165
0.203252,-84,1250,8321,94,-116,-171
0.203391,104,1343,8087,6,-52,-165
0.20353,214,1297,7884,63,-71,-171
0.20367,-4,1233,7618,75,-77,-140
0.203809,-243,1311,7427,0,-52,-190
0.203948,-310,1423,7449,38,-77,-165
0.204088,-500,1455,7430,56,-84,-146
0.204227,-437,1366,7205,56,-71,-184
0.204366,-516,1404,7304,19,-84,-178
0.204506,-643,1407,8014,50,-46,-115
0.204645,-705,1307,8418,31,-109,-197
0.204784,-680,1359,7812,38,-58,-146
0.204924,-236,1473,7366,50,-103,-171
0.205063,31,1682,7495,25,-33,-159
0.205202,73,1417,7889,82,-71,-153
0.205341,56,1297,8380,12,-97,-165
0.205481,190,1346,8665,6,-52,-159
0.20562,145,1468,8633,119,-65,-178
0.205759,91,1559,8493,-32,-58,-121
0.2059,134,1612,8392,63,-65,-216
0.20604,372,1605,8670,63,-77,-146
0.206178,370,1348,8838,12,-26,-153
0.206316,302,1157,8933,38,-103,-216
0.206456,188,1356,8968,50,-52,-127
0.206595,195,1638,8920,25,-77,-190
0.206734,247,1612,8816,88,-71,-178
0.206874,171,1562,8735,31,-84,-178
0.207013,392,1586,8628,69,-77,-146
0.207152,356,1438,8699,38,-46,-165
0.207293,429,1208,8917,63,-90,-203
0.207431,149,1029,8931,44,-39,-121
0.20757,-31,822,9023,44,-71,-190
0.20771,-18,936,9042,75,-84,-165
0.207849,90,933,8888,31,-65,-159
0.207988,170,858,8869,82,-71,-165
0.208128,68,948,8642,44,-84,-171
0.208267,230,1048,8256,44,-39,-171
0.208407,368,1178,8156,50,-77,-171
0.208545,588,1294,8156,56,-90,-165
0.208685,642,1531,7869,25,-52,-197
0.208824,802,1830,7623,50,-52,-146
0.208965,790,2021,7649,44,-128,-184
0.209103,876,1976,7621,63,-77,-184
0.209242,1049,1951,7560,25,-103,-171
0.209381,872,1426,7722,38,-84,-165
0.209521,551,1151,7601,56,-84,-222
0.20966,356,1226,7420,31,-90,-165
0.209799,386,1218,7592,25,-97,-165
0.209939,234,1268,7848,50,-52,-171
0.210078,219,1115,7750,50,-77,-203
0.210217,371,1383,7533,25,-84,-190
0.210356,554,1573,7662,38,-90,-127
0.210496,545,1427,7868,25,-77,-209
0.210635,345,1236,7763,63,-65,-159
0.210774,389,1000,7732,63,-39,-184
0.210914,339,988,7985,44,-116,-178
0.211053,733,923,8413,12,-39,-165
0.211192,815,774,8343,63,-90,-171
0.211331,1061,301,8323,6,-65,-153
0.211471,1077,526,8649,88,-103,-216
0.21161,1489,486,8853,31,-52,-102
0.21175,1614,423,9013,56,-122,-209
0.211889,1631,682,9106,44,-90,-165
0.212028,1818,945,8937,6,-84,-165
0.212167,2257,1220,8800,50,-122,-165
0.212307,2724,1120,8756,44,-77,-171
0.212446,3067,1068,8522,0,-116,-159
0.212586,3149,792,8606,100,-173,-222
0.212725,3155,345,8731,-6,-52,-121
0.212864,3550,463,8596,56,-122,-216
0.213003,3884,325,8162,38,-97,-153
0.213143,4317,264,7838,31,-90,-165
0.213282,4135,114,7917,31,-84,-184
0.213421,4185,-64,8359,75,-109,-190
0.213561,3901,349,8731,12,-71,-159
0.2137,3891,246,8903,50,-103,-197
0.213839,3577,908,8940,56,-90,-222
0.213979,3301,674,9003,12,-52,-171
0.214118,2893,965,8861,63,-14,-197
0.214257,2483,597,9453,56,-109,-178
0.214396,1839,1557,10024,25,-20,-216
0.214536,1525,1383,9640,107,-71,-178
0.214675,1007,1673,8554,69,-20,-216
0.214815,1012,2256,7560,25,-77,-184
0.214954,620,2240,7204,82,-14,-216
0.215093,230,2141,7197,38,-52,-178
0.215232,-458,1731,6867,82,-58,-228
0.215372,-574,1863,6607,69,-84,-146
0.215511,-906,2266,6273,56,-33,-241
0.21565,-1000,1572,6359,25,-52,-165
0.21579,-1650,2162,6489,56,-84,-222
0.215929,-1515,1275,7150,44,-14,-165
0.216068,-1948,1514,7770,50,-33,-184
0.216207,-1821,1330,7887,44,-71,-197
0.216347,-1720,1245,7980,69,-33,-228
0.216486,-1753,1791,7988,25,-39,-115
0.216625,-1582,1442,8396,56,-26,-222
0.216764,-1774,1787,8781,31,-46,-171
0.216904,-1490,1550,8888,69,-39,-165
0.217043,-1414,1468,8569,50,-46,-216
0.217183,-1235,1949,8520,75,-84,-127
0.217322,-1118,1782,8730,56,-7,-216
0.217461,-968,1606,8801,31,-77,-153
0.217601,-1108,1525,9010,31,-84,-165
0.217741,-1210,1405,8873,63,-33,-190
0.217879,-1125,2214,8499,56,-65,-178
0.218018,-1022,1729,8192,19,-58,-140
0.218158,-1360,1789,8106,50,-46,-209
0.218297,-1545,1570,8353,56,-77,-159
0.218436,-1359,1569,8723,6,-33,-165
0.218576,-1707,1658,9246,63,-71,-159
0.218715,-1604,1948,9161,6,-39,-153
0.218855,-1366,1893,8827,82,-97,-184
0.218994,-1085,1937,8755,19,-52,-153
0.219133,-566,1645,8980,44,-103,-159
0.219272,-231,1326,8896,12,-52,-140
0.219411,51,1172,9044,63,-97,-153
0.219551,608,1219,9656,38,-109,-165
0.21969,1049,1581,9534,50,-71,-134
0.219829,1450,1798,8734,88,-103,-159
0.219969,1794,2383,8278,25,-103,-146
0.220108,1731,2364,8296,44,-97,-197
0.220247,1511,2418,8756,19,-84,-96
0.220387,1362,2209,8881,56,-109,-184
0.220526,1077,2363,8774,19,-46,-178
0.220665,756,2647,8742,50,-77,-146
0.220805,97,2981,8466,44,-58,-102
0.220944,-370,3173,8388,88,-46,-216
0.221083,-646,3234,8376,31,-84,-153
0.221222,-999,3066,8211,63,-33,-153
0.221362,-832,3187,8271,50,-26,-146
0.221501,-1306,3250,7904,50,-46,-146
0.22164,-1193,2998,7692,88,-90,-178
0.22178,-1233,2935,7591,38,-33,-134
0.221919,-1230,3027,7689,69,-65,-159
0.222058,-1207,2677,7603,31,-52,-121
0.222198,-1182,2761,6620,82,-122,-178
0.222337,-682,3009,6362,19,-84,-146
0.222476,-672,2759,6827,56,-71,-134
0.222616,-986,2681,6717,0,-58,-121
0.222755,-832,2335,6256,100,-135,-171
0.222894,-872,2332,6232,-25,-52,-115
0.223034,-830,2730,6784,38,-65,-134
0.223173,-502,2425,7057,25,-71,-171
0.223312,-702,2334,7403,19,-46,-96
0.223454,-736,1938,7883,63,-71,-165
0.223591,-834,2113,8397,-13,-33,-108
0.22373,-323,1806,9159,63,-84,-184
0.223869,-114,2065,9448,19,-33,-127
0.224009,202,1361,9408,88,-84,-140
0.224148,492,1696,9574,38,-77,-115
0.224287,859,1462,9961,50,-103,-165
0.224428,1437,1363,9797,19,-77,-134
0.224566,1397,1732,9015,25,-90,-134
0.224705,1734,1395,8820,113,-135,-165
0.224845,1532,2356,9011,0,-103,-153
0.224984,1347,1725,9315,88,-77,-108
0.225123,1289,1925,9295,6,-135,-190
0.225262,1351,1955,9054,94,-65,-127
0.225402,1069,1449,9072,25,-90,-171
0.225541,1242,1470,8812,19,-46,-153
0.22568,1813,452,9205,12,-90,-102
0.22582,2086,545,10055,50,-84,-165
0.225959,2774,53,10345,56,-109,-165
0.226098,2734,277,9704,-6,-39,-89
0.226238,3017,480,8799,100,-122,-203
0.226377,3535,-147,8927,19,-135,-121
0.226516,3345,849,9287,56,-116,-165
0.226656,3346,110,9140,38,-90,-134
0.226795,2913,673,8600,44,-116,-146
0.226934,2465,886,7836,63,-77,-178
0.227073,1928,945,7376,50,-52,-153
0.227213,1823,1754,7709,38,-122,-171
0.227352,672,1401,8504,31,25,-140
0.227491,51,1928,8468,50,-65,-184
0.227631,-568,2164,8074,56,-20,-165
0.22777,-1233,2670,7680,44,-39,-146
0.227909,-1499,2724,7006,100,-20,-184
0.228049,-1824,2751,7167,12,-39,-153
0.228188,-1942,2834,7594,119,-39,-159
0.228327,-1874,2715,7753,56,-58,-146
0.228467,-2093,2479,7382,82,-33,-146
0.228606,-1928,2716,6453,69,-84,-165
0.228745,-1509,2624,6038,69,-39,-127
0.228884,-1156,2487,6541,44,-90,-140
0.229024,-1081,1894,6654,63,-65,-146
0.229168,-1067,1793,6432,82,-46,-165
0.229302,-824,1870,6510,0,-84,-134
0.229442,-835,2277,6685,69,-90,-146
0.229581,-820,2266,7133,19,-71,-190
0.22972,-563,1989,7533,0,-20,-108
0.22986,-628,1768,7982,88,-128,-165
0.229999,-309,1319,8362,38,-20,-171
0.230138,-409,1654,8634,0,-84,-102
0.230278,-643,1669,9041,100,-52,-203
0.230417,-911,1872,9201,12,-71,-153
0.230556,-1009,1582,9178,56,-39,-134
0.230696,-1084,1483,9401,25,-52,-121
0.230835,-987,1856,9083,56,-65,-203
0.230974,-925,1761,8851,63,-65,-146
0.231113,-1210,1984,8994,44,-39,-121
0.231253,-1242,1999,9393,44,-65,-165
0.231392,-1189,1864,9447,44,-33,-108
0.231531,-1210,1896,9117,94,-109,-203
0.231671,-1122,1941,8783,38,-39,-102
0.23181,-1062,1828,9168,19,-58,-159
0.231949,-1131,1530,9377,100,-128,-190
0.232089,-1103,1316,9199,31,-26,-96
0.232228,-959,1455,8830,88,-122,-165
0.232367,-802,1533,8790,75,-33,-153
0.232507,-905,1418,9069,56,-77,-115
0.232646,-1038,1194,9064,63,-90,-171
0.232785,-845,1228,9115,44,-52,-134
0.232925,-609,1402,9198,63,-58,-159
0.233064,-502,1312,9065,63,-97,-153
0.233203,-717,1562,8627,44,-52,-146
0.233342,-851,1581,8414,63,-52,-140
0.233482,-895,2062,8544,82,-52,-146
0.233621,-830,2126,8463,82,-90,-159
0.23376,-893,2292,8578,63,-71,-127
0.2339,-965,2199,8457,-6,-26,-159
0.234039,-1109,2276,8100,138,-122,-121
0.234178,-1033,2448,7860,19,-14,-197
0.234318,-1043,2564,7503,38,-97,-77
0.234457,-1238,2380,7551,107,-90,-222
0.234596,-1180,2244,7491,25,-46,-58
0.234735,-1014,2371,6939,56,-90,-203
0.234875,-767,2491,6642,50,-103,-121
0.235014,-589,2499,6560,25,-39,-140
0.235153,-960,2518,6257,31,-103,-140
0.235293,-899,2186,6484,19,-39,-121
0.235432,-941,1863,6773,69,-122,-178
0.235571,-728,1640,7205,25,-71,-108
0.235711,-333,1694,7528,44,-103,-171
0.23585,-340,1844,7621,38,-39,-102
0.235989,-705,1803,7902,38,-109,-171
0.236129,-410,1881,8106,50,-52,-127
0.236268,-389,2220,8100,19,-109,-127
0.236407,-206,1921,8537,63,-46,-134
0.236546,-82,1630,8758,-19,-71,-146
0.236686,-30,1689,8825,94,-109,-165
0.236825,756,1821,8595,19,-52,-83
0.236964,790,2045,7939,-6,-109,-171
0.237104,1154,1808,7963,107,-77,-184
0.237243,1340,1890,8312,-44,-97,-64
0.237382,1564,1732,8748,56,-90,-184
0.237522,1872,1195,9233,-6,-122,-127
0.237661,1943,1172,9201,69,-128,-165
0.2378,2452,1295,9056,-57,-116,-153
0.23794,2805,1861,9038,126,-141,-146
0.238079,3108,1274,9357,-57,-141,-146
0.238218,2707,1140,9731,50,-65,-146
0.238358,2587,1758,10130,38,-128,-153
0.238497,2484,1449,10125,31,-122,-178
0.238637,2103,2078,9678,25,-39,-134
0.238777,1909,1293,9151,31,-122,-184
0.238915,1434,1874,9232,56,-90,-184
0.239054,1701,1476,9559,25,-71,-140
0.239194,702,1605,8883,56,6,-159
0.239336,233,1697,7770,63,-84,-171
0.239472,-427,1685,8204,38,-33,-153
0.239611,-568,2010,9678,44,-71,-146
0.239751,-708,924,9785,56,-7,-159
0.23989,-625,1185,8579,107,-103,-178
0.240029,-637,1433,7542,56,-1,-159
0.240169,-929,1805,8089,100,-65,-102
0.240308,-1073,1654,8534,44,-20,-197
0.240447,-1175,1223,8026,75,-52,-153
0.240586,-1087,1264,7305,50,-52,-140
0.240726,-989,1857,7280,82,-14,-159
0.240865,-868,2128,7507,44,-65,-165
0.241004,-1014,2301,7395,119,-58,-153
0.241144,-1047,2055,7001,-19,-20,-127
0.241283,-1098,2176,6804,113,-84,-153
0.241422,-870,2239,7000,19,-39,-178
0.241562,-930,2045,6572,19,-84,-121
0.241701,-958,1862,6187,82,-77,-165
0.24184,-669,1914,6748,31,-58,-178
0.24198,-679,1908,7489,25,-71,-108
0.242119,-567,1920,7377,50,-65,-190
0.242258,-497,2141,6624,6,-90,-159
0.242398,-728,2249,6336,69,-58,-115
0.242537,-851,2520,7347,12,-116,-216
0.242676,-817,2034,8286,-6,-46,-121
0.242815,-601,1769,8419,25,-97,-153
0.242955,-580,1445,7943,12,-71,-178
0.243094,-652,1603,7876,31,-128,-140
0.243233,-248,1835,8379,44,-77,-159
0.243373,-217,1738,8570,12,-84,-165
0.243512,-341,1118,8835,12,-71,-159
0.243651,-241,393,9342,44,-103,-140
0.243791,-49,853,9995,31,-122,-165
0.24393,633,961,10212,75,-84,-134
0.244069,966,860,10161,6,-84,-140
0.244208,484,1015,10056,100,-90,-190
0.244348,498,779,10428,19,-103,-127
0.244487,1522,724,10738,88,-71,-190
0.244626,2366,251,10072,31,-128,-115
0.244766,3243,58,9310,94,-109,-184
0.244905,4128,-298,8749,44,-103,-134
0.245044,5126,25,8782,50,-116,-171
0.245184,6505,-41,8816,69,-167,-165
0.245323,7678,-22,7623,12,-148,-153
0.245462,8125,177,6437,63,-186,-159
0.245602,8559,486,6233,-13,-179,-171
0.245741,7959,219,6878,-6,-154,-146
0.24588,7279,160,7535,31,-186,-216
0.24602,6776,557,7571,19,-167,-190
0.246159,5725,1469,8120,12,-52,-197
0.246298,4827,1969,8681,-6,-77,-165
0.246437,3803,2520,8273,63,-65,-216
0.246577,2819,2189,8244,19,-33,-171
0.246716,1890,2437,9539,-13,25,-216
0.246856,1195,3004,11113,56,-39,-171
0.246995,-69,3053,11732,88,44,-209
0.247134,-1413,3272,10775,56,-1,-165
0.247275,-2026,3501,10114,132,-20,-203
0.247417,-2041,4199,10143,100,37,-146
0.247552,-1795,3535,9989,100,-26,-235
0.247692,-1889,2819,9258,126,44,-127
0.247831,-1955,2234,7662,107,-26,-178
0.247972,-1673,2234,7134,113,37,-209
0.248109,-1588,1906,6736,100,-7,-121
0.248248,-1380,2009,5682,56,44,-165
0.248388,-1189,1917,5234,138,-26,-184
0.248527,-1220,1903,5723,69,-26,-171
0.248666,-1239,1673,6379,69,6,-159
0.248806,-1154,1854,5770,56,-52,-203
0.248946,-769,2040,4912,38,-26,-159
0.249085,-577,2249,4917,31,-33,-171
0.249224,-695,1776,5466,56,-52,-190
0.249364,-726,1594,5849,19,-84,-190
0.249503,-680,1685,5781,31,-46,-171
0.249642,-655,2056,6091,-19,-90,-153
0.249782,-754,2161,7041,63,-65,-228
0.24992,-929,2260,7943,0,-116,-159
0.250061,-1033,2616,8266,50,-58,-209
0.250199,-971,2343,8763,19,-65,-146
0.250339,-1293,2346,9483,44,-84,-184
0.250479,-1411,2195,10087,25,-20,-190
0.250617,-1511,2252,10359,38,-58,-165
0.250756,-1639,2352,10244,25,-65,-165
0.250897,-1699,2298,10053,75,-90,-216
0.251036,-1548,2402,9785,69,-58,-159
0.251174,-1746,2000,9544,50,-65,-190
0.251313,-1676,1671,9574,31,-58,-140
0.251454,-1386,1764,9058,69,-90,-190
0.251592,-1403,1208,8857,38,-46,-140
0.251731,-1623,615,9077,56,-77,-190
0.251871,-2008,904,9200,31,-90,-153
0.25201,-1660,662,9662,56,-90,-146
0.252149,-1409,449,10005,63,-90,-190
0.252288,-1446,326,10146,44,-58,-127
0.252428,-1572,835,10528,82,-46,-153
0.252567,-1940,1252,10484,75,-71,-178
0.252706,-2385,1730,9718,63,-26,-115
0.252846,-1985,1996,9250,75,-52,-153
0.252985,-1833,2116,10005,50,-46,-140
0.253124,-1942,1931,10782,69,-39,-140
0.253263,-2196,2184,10232,82,-20,-96
0.253403,-2244,2835,9111,50,-65,-159
0.253542,-2550,2923,8547,107,-77,-127
0.253681,-2368,2630,7943,75,-58,-140
0.253821,-2319,2434,7131,12,-71,-108
0.25396,-1675,2525,7690,88,-77,-121
0.254099,-1620,2266,7764,69,-58,-96
0.254239,-2055,2177,7051,31,-77,-140
0.254378,-1646,2628,6159,88,-52,-102
0.254517,-1816,2774,5452,69,-71,-115
0.254657,-1613,2309,4877,-13,-77,-89
0.254796,-1662,1766,4967,50,-71,-140
0.254935,-1227,2081,5741,56,-128,-115
0.255074,-1310,1857,5543,-6,-33,-89
0.255214,-1268,2200,4465,56,-103,-127
0.255353,-1585,2874,3644,31,-71,-121
0.255492,-1511,2525,4664,25,-122,-77
0.255633,-1878,1874,5666,-13,-58,-96
0.255771,-1463,1748,6344,31,-141,-89
0.25591,-1048,1381,7372,6,-84,-165
0.25605,-1382,1425,8148,44,-122,-51
0.256189,-1227,1669,8082,38,-77,-127
0.256329,-1257,903,8774,6,-90,-77
0.256468,-1396,1427,10962,56,-58,-64
0.256607,-1599,1675,12126,38,-77,-115
0.256747,-1370,1375,11882,94,-103,-115
0.256886,-1611,1045,10583,-6,-26,-77
0.257025,-1501,1284,10035,82,-103,-102
0.257164,-1071,1075,10809,25,-14,-70
0.257304,-1658,1090,11098,50,-90,-134
0.257443,-1626,702,9646,69,-7,-45
0.257582,-1860,476,7389,31,-122,-83
0.257723,-1502,621,6968,31,-58,-70
0.257861,-1467,639,7675,31,-90,-96
0.258,-1942,588,8304,19,-52,-39
0.25814,-1997,804,9606,63,-65,-70
0.258279,-2020,1559,10408,69,-26,-77
0.258418,-1837,1959,9475,75,-109,-64
0.258557,-1758,1148,9008,25,-26,-45
0.258697,-1898,1446,10544,50,-52,-51
0.258837,-1484,1112,12618,69,-141,-115
0.258975,-1374,840,12728,38,-26,-13
0.259115,-1439,713,11050,107,-90,-70
0.259255,-1148,1775,9119,75,-65,-96
0.259393,-609,2235,7385,44,-65,-20
0.259532,208,1401,7033,19,-90,-58
0.259673,81,773,7449,75,-103,-102
0.259811,394,708,7757,50,-71,-13
0.259951,430,1326,8051,25,-77,-83
0.26009,427,1770,7111,56,-33,-96
0.26023,819,2151,6179,25,-122,-13
0.260368,40,1725,6531,63,-52,-89
0.260508,-97,1478,7736,31,-116,-89
0.260647,65,1733,7790,31,-33,-58
0.260787,518,1234,7204,6,-77,-58
0.260926,806,1014,7017,56,-84,-115
0.261066,918,1525,6974,-19,-52,-26
0.261204,1163,1186,7720,94,-109,-121
0.261343,924,874,9029,6,-33,-70
0.261483,1229,1556,8711,88,-71,-96
0.261622,1520,2110,7548,38,-52,-77
0.261762,1766,2744,8069,69,-77,-115
0.261901,1878,1988,9602,38,-26,-58
0.26204,2869,1493,10398,88,-103,-96
0.26218,3692,1207,9735,50,-116,-77
0.26232,5298,1270,8986,69,-109,-83
0.262458,5816,2018,7979,94,-128,-140
0.262597,7324,957,7288,-13,-103,-32
0.262736,6685,315,6653,44,-160,-127
0.262876,6192,-543,7172,69,-224,-127
0.263015,6478,-118,7822,0,-128,-102
0.263154,6471,1148,8124,31,-218,-108
0.263294,5799,1011,7953,25,-103,-102
0.263434,4676,1152,7183,-13,-135,-89
0.263572,4047,826,7647,12,-90,-159
0.263712,3387,1622,8801,0,-52,-102
0.263851,3084,769,8837,19,-39,-121
0.26399,2155,1008,9214,19,-33,-108
0.26413,1533,522,9243,44,6,-115
0.264269,1101,1525,8722,75,6,-121
0.26441,113,1671,8838,25,-20,-102
0.264548,-208,2053,9082,138,12,-134
0.264687,77,1818,9221,6,-33,-58
0.264826,760,1447,8385,126,-58,-165
0.264967,1561,546,6612,44,-39,-83
0.265106,1770,1281,6153,100,-71,-115
0.265244,3097,-180,6171,50,-90,-96
0.265384,2654,963,6349,75,-116,-102
0.265523,2083,183,6595,82,-148,-121
0.265663,2442,1150,6044,12,-71,-108
0.265802,2278,1749,5620,107,-148,-115
0.265941,1802,1193,5749,25,-128,-115
0.26608,1399,1421,5622,0,-71,-108
0.26622,1050,175,6571,12,-39,-115
0.266359,1082,207,8628,25,-58,-127
0.266498,1221,366,9185,-13,-20,-115
0.266639,1449,-710,9060,25,12,-77
0.266777,1984,235,9465,38,-77,-146
0.266916,2710,-9,10541,19,-45,-77
0.267055,3016,363,11380,44,-58,-146
0.267195,3144,-198,10539,50,-109,-127
0.26734,3505,-183,9258,38,-71,-58
0.267473,3420,-32,9009,56,-128,-146
0.267613,3290,-484,9304,56,-84,-102
0.267753,3226,193,9407,31,-128,-134
0.267891,2603,716,9731,107,-77,-121
0.268031,2014,635,9234,50,-71,-140
0.26817,933,1253,8397,25,-97,-134
0.268309,-93,1396,8579,69,-52,-96
0.268448,-905,1938,8976,56,-26,-140
0.268588,-1970,2095,9447,38,25,-102
0.268727,-3287,1385,9161,82,12,-134
0.268866,-3360,1657,8349,63,31,-89
0.269006,-3257,2450,8422,63,18,-146
0.269145,-3084,2456,9088,75,50,-96
0.269284,-3532,2240,9479,56,-33,-102
0.269424,-3361,1783,8998,88,-26,-70
0.269563,-3219,1620,8892,69,-20,-121
0.269702,-3038,2196,8535,75,-90,-96
0.269842,-2701,2055,7017,107,-45,-89
0.269981,-2615,2186,6739,31,-97,-77
0.27012,-2504,1750,7396,44,-71,-64
0.270259,-2513,1630,7444,69,-103,-115
0.270399,-2251,1201,7432,50,-122,-20
0.270538,-2262,1539,8109,38,-77,-115
0.270677,-2275,2016,8398,63,-103,-58
0.27082,-2025,2232,7659,63,-103,-83
0.270956,-2012,2361,7127,12,-39,-51
0.271095,-2026,2310,7430,38,-122,-96
0.271235,-2070,2162,8147,25,-71,-45
0.271376,-2355,2004,8475,56,-77,-96
0.271513,-2432,1998,8012,19,-84,-45
0.271652,-2135,2426,7467,50,-90,-45
0.271792,-2073,2993,7150,50,-90,-102
0.271931,-2059,2592,7498,-6,-109,-77
0.27207,-2265,2000,7458,19,-77,-7
0.27221,-2276,1740,7043,31,-97,-51
0.272349,-2008,2553,7669,31,-109,-45
0.272488,-2211,2669,7981,38,-109,-70
0.272627,-2470,2365,7718,31,-90,-20
0.272767,-2519,2270,7766,25,-103,-58
0.272906,-2233,2137,8387,12,-116,-20
0.273046,-2218,1840,9307,50,-103,-45
0.273185,-2424,1993,10045,0,-71,-26
0.273324,-2674,2056,9707,119,-109,-26
0.273464,-2502,1807,9135,31,-77,-32
0.273603,-2300,1504,9198,50,-103,-7
0.273742,-2159,1600,9394,50,-103,-39
0.273882,-1962,1731,9601,56,-52,-32
0.274021,-2427,1121,10031,38,-128,-1
0.27416,-2536,821,10234,82,-7,-13
0.274299,-2502,833,9460,44,-148,-26
0.274439,-1781,942,9597,82,-39,5
0.274578,-2375,1549,10116,19,-58,12
0.274719,-2154,1665,10095,75,-77,-20
0.274857,-2257,847,8815,19,-7,-1
0.274996,-2027,963,8047,69,-116,5
0.275135,-1142,1604,8381,38,-39,-26
0.275276,-1194,1459,8761,-25,-58,24
0.275414,-1582,1452,8484,75,-58,-1
0.275555,-1898,1235,7169,44,-77,-13
0.275692,-1065,1881,6887,44,-122,-1
0.275832,-747,2139,7490,82,-84,12
0.275971,-986,2344,7335,-13,-128,-13
0.27611,-1037,2007,6323,82,-97,12
0.27625,-768,1543,6521,19,-122,-20
0.276389,-480,1313,7351,19,-77,-1
0.276528,-291,1171,7785,6,-116,18
0.276668,-22,1481,7694,75,-122,-32
0.276807,-354,1323,8501,12,-84,-13
0.276946,-109,1170,9202,69,-71,-7
0.277086,116,1293,8324,44,-97,-26
0.277225,920,1369,7843,50,-97,12
0.277364,505,1986,7572,56,-77,-39
0.277503,342,1887,6738,25,-45,-7
0.277643,206,1021,6454,19,-71,-45
0.277782,470,945,7367,126,-103,-20
0.277922,524,962,7930,12,-33,-32
0.278061,902,1290,7681,63,-65,-45
0.2782,441,1889,7255,56,-116,-20
0.278341,424,2079,7434,38,-20,-39
0.278479,475,1924,8226,63,-52,-45
0.278618,527,1282,9390,69,-58,-51
0.278758,584,1002,9396,56,-77,-13
0.278896,503,1753,8698,6,25,-39
0.279036,714,1923,8980,94,-109,-77
0.279175,292,1940,8914,25,-26,-20
0.279314,598,1528,8051,56,-52,-51
0.279454,930,1303,8114,31,-7,-51
0.279593,882,1398,8973,50,-103,-39
0.279732,1042,1903,9239,44,-7,-45
0.279872,678,1993,8432,56,-122,-83
0.280011,781,2076,8474,6,6,24
0.28015,900,2517,10115,94,-109,-121
0.28029,1026,2181,10762,31,-58,-58
0.280429,746,1910,9751,69,-65,-70
0.280568,846,2314,8636,31,-39,-77
0.280708,1082,2947,8430,82,-71,-45
0.280847,911,3259,8845,69,-65,-89
0.280986,550,2766,8265,56,-77,-96
0.281125,113,2432,7679,6,-65,-39
0.281265,261,2286,7726,69,-97,-96
0.281406,733,2228,7875,50,-135,-83
0.281543,1134,2516,7569,38,-71,-64
0.281683,822,2115,6180,0,-90,-83
0.281822,679,1805,5500,75,-97,-89
0.281961,590,1762,6181,63,-84,-96
0.282101,1363,1991,7111,25,-52,-108
0.28224,1172,1367,7087,44,-84,-77
0.282379,858,1407,6622,56,-52,-89
0.282518,338,2098,6668,82,-45,-121
0.282658,437,2032,7505,0,-26,-70
0.282797,510,1648,7689,88,-33,-96
0.282936,579,1197,7502,44,-39,-77
0.283077,398,1501,7605,12,-7,-127
0.283215,74,1393,7553,113,-109,-115
0.283356,-291,1218,7608,-6,-20,-77
0.283494,-258,979,8076,88,-84,-127
0.283634,-274,1046,8719,25,-20,-58
0.283772,-542,784,8034,88,-84,-127
0.283912,-575,525,7041,44,-58,-96
0.284051,-656,1310,7384,50,-33,-70
0.28419,-692,1329,8499,25,-52,-89
0.284332,-1113,803,9456,44,-77,-121
0.284469,-1561,-85,9738,25,-39,-58
0.284608,-1184,322,9604,50,-33,-96
0.284748,-1011,1309,9015,56,-84,-89
0.284887,-722,2108,8915,38,-71,-89
0.285031,-1009,1966,10130,50,-52,-102
0.285166,-1467,1346,10595,12,-52,-96
0.285306,-1122,842,10151,44,-84,-45
0.285444,-776,1165,9615,82,-84,-108
0.285583,89,2135,8952,31,-90,-83
0.285723,-42,2372,9265,63,-26,-83
0.285862,-808,1290,9824,31,-71,-58
0.286001,-1089,59,8979,31,-71,-96
0.28614,-464,-20,8366,31,-128,-83
0.286281,286,423,9366,82,-7,-70
0.286419,124,1683,10285,19,-122,-83
0.286559,-792,1301,8361,88,-52,-96
0.286698,-418,1009,6604,31,-90,-83
0.286838,222,2233,7420,38,-103,-70
0.286977,825,2610,9199,19,-84,-96
0.287116,210,2705,9393,69,-52,-77
0.287256,-898,1998,7800,56,-46,-70
0.287394,-816,2484,8131,38,-97,-96
0.287534,-251,3169,8421,75,-46,-58
0.287673,282,2342,8168,50,-39,-140
0.287812,37,1534,7558,63,-33,-26
0.287952,-342,1303,7233,44,-109,-115
0.288091,-372,1495,8715,69,-33,-96
0.28823,-903,1329,8542,82,-77,-77
0.288369,-1066,1379,6186,82,-52,-96
0.288509,-936,1326,5460,19,-90,-102
0.288648,-916,1513,6594,63,-90,-83
0.288787,-895,1534,6816,6,-65,-32
0.288927,-1185,915,6433,75,-84,-121
0.289066,-1270,607,6811,44,-90,-58
0.289206,-1564,1155,7977,6,-52,-64
0.289345,-971,1050,8597,69,-122,-108
0.289484,-889,953,8320,44,-26,-39
0.289624,-1102,958,8927,50,-90,-77
0.289763,-973,621,10462,69,-20,-70
0.289902,-1314,840,11096,94,-84,-58
0.290041,-231,942,9902,19,-7,-96
0.290181,428,1253,9064,44,-46,-26
0.29032,607,2657,10393,126,-26,-102
0.290459,211,2433,11013,-13,-39,-20
0.290599,493,1382,10054,82,-33,-89
0.290738,208,748,9367,88,-58,-70
0.290877,551,1982,9802,56,-71,-70
0.291016,403,2702,9229,88,-84,-70
0.291156,24,1594,8155,25,-26,-64
0.291295,-460,521,7432,50,-122,-96
0.291435,-426,-142,7093,56,-77,-83
0.291577,580,-410,7740,31,-84,-45
0.291714,593,-676,8090,69,-128,-89
0.291852,448,203,7816,44,-84,-58
0.291992,248,580,6953,82,-128,-115
0.292132,193,968,7558,38,-90,-20
0.29227,144,998,9014,44,-84,-96
0.292409,-1,731,8450,56,-84,-64
0.292549,71,609,6477,69,-97,-83
0.292688,-176,706,5466,25,-84,-77
0.292827,670,1776,6223,38,-20,-77
0.292967,672,1463,6671,19,-71,-58
0.293106,841,657,6847,31,-20,-77
0.293245,194,113,6860,107,-90,-83
0.293385,187,667,7773,12,6,-26
0.293524,701,1892,9042,132,-103,-115
0.293664,413,2098,8861,6,44,-70
0.293803,240,1790,8511,44,-58,-83
0.293943,131,1002,8236,63,-1,-102
0.294081,236,1216,9185,82,-71,-58
0.29422,724,1290,10361,38,-1,-70
0.29436,376,1720,8809,44,-7,-89
0.294498,415,2179,7563,88,-103,-108
0.294638,224,2487,7776,38,-39,-89
0.294779,275,2499,8522,56,-122,-96
0.294917,954,1869,8884,38,-46,-70
0.295056,824,1410,7825,-19,-122,-134
0.295196,624,1275,7420,88,-103,-58
0.295339,749,958,7758,19,-97,-115
0.295475,1367,1024,7694,38,-84,-77
0.295614,1686,714,7938,6,-97,-89
0.295753,1490,336,9446,69,-58,-134
0.295892,1042,958,10413,63,-65,-96
0.296031,830,1145,10024,44,-7,-127
0.296171,462,1140,9564,75,-58,-96
0.29631,731,1136,9547,44,-33,-121
0.29645,1196,1541,9914,94,12,-121
0.296589,935,1641,10193,31,31,-64
0.296728,723,1102,9974,50,-20,-127
0.296868,521,856,9485,113,-14,-102
0.297008,1099,1109,8668,82,-71,-159
0.297146,1829,828,7904,88,-77,-102
0.297285,2878,1125,7707,69,-58,-146
0.297426,3524,1272,7029,75,-103,-83
0.297564,3372,1265,6600,63,-122,-153
0.297703,3454,1201,7186,31,-148,-127
0.297842,4108,916,7320,25,-154,-127
0.297982,3622,1424,7180,6,-186,-146
0.298121,3879,631,8060,6,-154,-140
0.29826,3985,-80,9121,63,-192,-178
0.2984,4562,107,9220,-57,-84,-121
0.298539,4908,-418,7189,75,-148,-184
0.298679,5442,-261,6509,-6,-135,-96
0.298818,5321,1014,7323,-19,-84,-184
0.298957,5425,-58,9019,12,-116,-153
0.299097,5166,-29,10134,-19,-90,-102
0.299236,4926,-1115,10440,12,-103,-203
0.299375,5576,-447,10232,31,-135,-146
0.299514,5083,1001,11084,44,-84,-121
0.299654,4203,1072,11612,63,-65,-178
0.299793,3410,843,9993,82,-128,-146
0.299932,2302,1823,7957,100,-77,-190
0.300072,1943,1792,7660,132,-58,-178
0.300211,869,3728,8200,63,-20,-127
0.30035,25,2687,7161,88,-26,-153
0.30049,-1164,2793,5736,82,-39,-222
0.300629,-1430,2473,5606,69,-14,-127
0.300768,-1322,2521,6337,119,-52,-146
0.300907,-1233,3101,5209,38,6,-165
0.301047,-1658,3317,3341,100,-58,-165
0.301186,-2194,2724,3578,44,-45,-96
0.301325,-2344,1216,3846,6,-20,-190
0.301466,-1663,1539,4313,38,-58,-115
0.301604,-1558,803,5551,12,-14,-140
0.301743,-1818,836,7304,38,-1,-134
0.301883,-2743,641,7119,-6,-14,-134
0.302022,-2770,71,6589,44,-7,-96
0.302161,-2356,873,7912,-38,-71,-184
0.3023,-1980,682,9165,31,-1,-83
0.30244,-1636,591,9822,-32,-90,-140
0.302579,-2188,-312,9460,38,-7,-134
0.302718,-2139,-729,9245,19,-45,-89
0.302857,-1735,238,9351,82,-71,-165
0.302998,-1355,1335,9245,82,-14,-102
0.303136,-2017,1568,9012,6,-26,-108
0.303275,-2548,1398,8904,69,-45,-115
0.303415,-2216,1012,9154,44,-1,-140
0.303555,-2101,237,10341,56,-20,-96
0.303694,-2166,392,11038,63,-39,-96
0.303833,-2215,594,9852,44,-33,-140
0.303973,-1870,1617,9025,63,-33,-70
0.304112,-2168,1993,9700,63,-33,-127
0.304251,-2303,1484,10721,31,-77,-115
0.30439,-1679,915,10327,38,-20,-58
0.304529,-1963,913,8847,31,-71,-102
0.304669,-1525,1598,8161,75,-71,-134
0.30481,-1467,2461,8088,31,-77,-96
0.304947,-1602,1875,8236,31,-77,-39
0.305088,-2042,1434,8462,38,-103,-146
0.305226,-1675,903,8610,56,-103,-45
0.305365,-1264,432,8817,69,-128,-121
0.305505,-1186,1215,7854,38,-65,-102
0.305645,-908,2350,7001,63,-128,-70
0.305783,-1008,2301,8537,0,-52,-39
0.305923,-1985,1001,10023,25,-90,-140
0.306062,-2313,225,9838,75,-71,-26
0.306201,-1448,683,9818,31,-45,-102
0.30634,-917,2138,10433,56,-45,-102
0.30648,-1617,2442,9925,56,-77,-64
0.306619,-1530,2542,8406,94,-84,-45
0.30676,-1448,2262,6915,19,-84,-102
0.306898,-710,2156,7310,31,-90,-83
0.307037,-289,2794,7117,56,-52,-51
0.307176,-757,3324,5464,38,-65,-115
0.307316,-1229,3198,5232,6,-90,-20
0.307455,-1756,2611,5695,50,-103,-89
0.307594,-861,2713,6357,69,-97,-96
0.307734,63,2079,6782,-6,-103,-51
0.307873,-451,1570,6518,19,-58,-70
0.308012,-682,1765,6586,19,-84,-77
0.308152,-974,1306,6920,25,-97,-58
0.308291,-863,1078,8110,44,-39,-70
0.30843,-506,1552,8208,-13,-58,-115
0.30857,-638,2368,7693,56,-77,-58
0.308709,-204,2079,7861,0,-77,-70
0.308848,-923,1215,8028,31,-33,-89
0.308987,-183,1860,8034,44,-77,-77
0.309127,153,2356,7291,6,-26,-51
0.309266,-532,2528,7091,25,-45,-96
0.309405,-801,2657,7212,25,-39,-39
0.309545,-753,2213,7812,19,-39,-108
0.309684,-158,1411,9356,56,-65,-108
0.309823,-141,536,10424,19,-14,-20
0.309963,74,846,10636,75,-45,-96
0.310102,0,1953,10370,50,-33,-102
0.310241,-615,1672,10078,0,-26,-26
0.31038,-299,1508,10376,126,-71,-108
0.31052,-337,1316,10813,-25,-33,-89
0.310659,57,948,11603,94,-58,-70
0.310798,-240,1426,10984,31,-39,-70
0.310938,-59,1380,8536,63,-97,-140
0.311077,125,2342,7350,50,-71,-20
0.311216,342,2488,8036,56,-65,-127
0.311356,362,1497,8544,38,-65,-96
0.311495,-42,1143,7845,6,-26,-58
0.311634,227,1173,8152,50,-97,-77
0.311773,206,1279,9754,12,-45,-70
0.311913,391,1536,10367,38,-65,-77
0.312052,487,945,8769,69,-52,-108
0.312191,509,485,7513,31,-116,-115
0.312331,732,964,8078,69,-71,-39
0.31247,403,1605,8603,38,-71,-102
0.312609,94,1204,8047,82,-135,-152
0.312748,-306,934,7556,-19,-33,-26
0.312888,-183,833,7620,113,-97,-134
0.313027,-438,1299,7163,56,-103,-134
0.313166,-483,749,6148,25,-58,-20
0.313306,-338,340,5413,19,-90,-146
0.313446,-55,943,6051,31,-39,-77
0.313585,798,582,7156,38,-77,-64
0.313724,573,-48,7378,6,-90,-115
0.313864,994,-78,6616,31,-52,-108
0.314002,1564,157,6566,25,-103,-70
0.314142,2178,216,8012,44,-39,-115
0.314281,2276,363,8057,12,-135,-108
0.31442,2427,328,6605,25,-52,-39
0.314561,2774,764,6460,56,-141,-152
0.314699,2986,896,8309,25,-84,-102
0.314838,2854,380,10082,44,-103,-96
0.31498,3062,-478,10071,12,-77,-83
0.315117,2213,326,9566,69,-122,-134
0.315256,2472,534,9744,0,-39,-64
0.315396,1538,1772,9598,94,-109,-121
0.315535,921,1689,9630,6,-20,-127
0.315674,-462,850,9968,50,-26,-89
0.315814,-1014,651,9678,31,-65,-127
0.315953,-959,1342,8309,63,6,-108
0.316092,-1208,1945,8031,-6,-26,-83
0.316232,-1182,872,8243,25,-7,-83
0.316371,-1014,881,7495,25,-39,-127
0.31651,614,-420,7465,44,-45,-64
0.316649,996,-1117,8417,0,-58,-89
0.316789,1807,-734,8479,100,-90,-127
0.316928,3040,-600,7264,50,-103,-45
0.317067,3507,-144,7729,31,-128,-89
0.317206,3712,-89,9259,107,-109,-134
0.317346,3130,258,9323,31,-122,-64
0.317485,2873,-502,8275,75,-135,-140
0.317625,2795,-241,8686,-6,-109,-70
0.317764,2673,623,10592,82,-122,-127
0.317903,2444,918,10690,-25,-39,-140
0.318042,1319,826,8570,69,-58,-108
0.318182,18,795,8410,44,-33,-77
0.318321,-256,1626,9987,6,31,-140
0.31846,-721,2035,10374,50,-14,-134
0.3186,-1552,1891,9324,44,69,-70
0.318739,-2449,1572,7860,69,-26,-140
0.318878,-1707,2146,7163,-13,44,-108
0.319018,-1595,2115,7456,75,-77,-96
0.319157,-901,799,8008,0,18,-140
0.319296,-1101,-386,6776,88,-90,-89
0.319436,-402,-652,5863,19,-14,-58
0.319575,-276,599,7168,94,-128,-159
0.319714,-202,1273,8053,50,-90,-102
0.319854,110,244,6942,100,-116,-89
0.319993,-52,-96,5906,19,-148,-140
0.320132,955,847,7091,56,-116,-127
0.320271,1515,958,9127,38,-109,-58
0.320411,562,306,9110,63,-122,-184
0.32055,-275,509,7879,56,-77,-108
0.320689,-410,802,7996,12,-90,-102
0.320829,124,1693,8970,69,-58,-153
0.320969,-322,1171,9454,-6,12,-121
0.321107,-301,901,9815,6,-52,-96
0.321246,-1345,265,9055,50,25,-153
0.321386,-1066,-379,8455,56,-77,-140
0.321526,-478,1060,8288,0,25,-89
0.321664,-994,2311,9109,38,-39,-153
0.321804,-977,1279,10341,44,-14,-134
0.321944,-2090,-22,9232,50,-84,-108
0.322082,-1491,-699,7792,56,-65,-165
0.322222,105,1569,7070,38,-90,-121
0.322361,40,2490,7213,56,-46,-108
0.3225,-189,1907,7750,50,-65,-140
0.322639,-1828,669,7529,75,-116,-184
0.322779,-932,427,7934,19,-97,-45
0.322918,-327,769,8071,69,-167,-171
0.323058,-215,1476,7931,12,-33,-134
0.323198,-182,2317,7651,88,-135,-146
0.323337,-896,1936,7443,12,-1,-83
0.323476,-1203,649,8186,56,-84,-171
0.323615,-1383,-159,7992,12,-46,-89
0.323755,-510,762,7590,44,-97,-171
0.323894,-413,1651,8937,38,-52,-121
0.324034,-1611,950,10534,-6,-46,-102
0.324172,-2056,206,9357,75,-65,-171
0.324311,-1755,26,7619,38,-77,-77
0.324451,-989,884,8107,44,-103,-159
0.32459,-847,1262,8475,19,-90,-89
0.324729,-944,970,7622,31,-65,-159
0.324868,-1454,516,7553,31,-90,-83
0.325008,-1984,328,9376,50,-65,-134
0.325147,-1293,751,9915,69,-71,-96
0.325286,-1085,775,7502,-6,-58,-83
0.325426,-954,1395,6565,94,-122,-140
0.325565,-640,2140,7554,0,-20,-51
0.325704,-535,1768,8337,19,-97,-134
0.325844,-794,909,8452,88,-97,-96
0.325983,-1032,80,7224,50,-33,-140
0.326122,-546,1414,6603,25,-103,-64
0.326262,-503,1801,7540,50,-52,-127
0.326401,-1031,1271,8821,31,-84,-115
0.32654,-1572,509,8325,0,-46,-70
0.326679,-1062,-132,7713,69,-109,-171
0.326819,-881,137,8426,19,-71,-20
0.326958,-21,117,9202,6,-122,-102
0.327097,690,330,9299,25,-39,-121
0.327237,234,1403,9581,44,-128,-83
0.327376,-383,89,10691,63,-58,-58
0.327515,-378,970,11007,0,-58,-102
0.327655,-144,1676,10487,113,-97,-108
0.327794,399,1915,11454,12,-26,-96
0.327933,332,1173,12116,38,-58,-96
0.328073,270,225,10431,82,-52,-96
0.328212,1001,639,10034,50,-90,-77
0.328351,977,969,11370,113,-39,-127
0.328491,-233,900,11164,88,-84,-89
0.32863,-586,988,9237,126,-116,-58
0.328769,-1438,1138,6892,82,-109,-159
0.328908,-1224,817,7157,56,-58,-96
0.329048,-928,1398,7815,75,-52,-45
0.329187,-2043,1354,6714,75,-103,-153
0.329326,-2061,667,5739,25,-39,-45
0.329466,-2372,914,5199,50,-116,-83
0.329605,-1335,941,5894,63,-116,-115
0.329744,-1238,578,6337,12,-46,-58
0.329884,-1454,-556,6217,19,-84,-32
0.330023,-995,-810,6052,69,-90,-171
0.330162,-1053,228,6079,12,-20,18
0.330302,-663,142,6960,88,-109,-121
0.330441,-1060,168,7327,-6,-7,-70
0.33058,-675,314,7222,31,-84,-45
0.330719,-664,387,8588,63,-90,-108
0.330859,-904,200,9667,12,-97,-51
0.330998,-521,568,8424,63,-46,-121
0.331137,-440,1353,7381,44,-116,-20
0.331277,-598,1592,8076,82,-52,-127
0.331416,-733,1810,8813,31,-103,-64
0.331555,-578,591,8684,-6,-20,-26
0.331695,-994,-241,8352,163,-97,-146
0.331834,-131,-224,7843,-25,-46,-58
0.331973,-79,-805,5999,-13,-7,-39
0.332113,1096,938,4518,-50,37,-108
0.332252,1307,-340,5603,-101,18,-32
0.332391,477,-400,8445,-101,108,-39
0.33253,747,-3014,9119,-182,50,-64
0.33267,1902,-3012,7423,-44,57,-39
0.332809,3895,-1714,6507,-163,-14,-45
0.332948,4990,-2656,8420,-50,-58,-64
0.333088,5594,-2515,9086,-88,-33,-7
0.333227,6584,-2741,5468,-44,-173,-77
0.333366,6493,-3116,3626,-113,-84,-70
0.333506,5268,-1925,4993,-50,-256,-77
0.333645,3399,-2233,3498,-101,-135,-1
0.333784,2123,-1777,8,-138,-186,-115
0.333924,1888,-1324,-4077,-233,-65,-26
0.334063,3814,120,-3412,-321,-58,-51
0.334202,1900,-1610,-16,-390,216,-51
0.334341,1033,-1437,-1399,-515,337,18
0.334481,-600,-2713,-1026,-610,459,5
0.33462,-136,-2566,4732,-672,573,24
0.334759,502,-1725,11177,-666,650,31
0.334899,1214,-11523,19867,-660,592,69
0.335038,-4320,-12310,32764,-214,344,-64
0.335177,1820,3951,32764,-226,305,5
0.335317,1209,-936,32764,-226,171,18
0.335456,3198,-4756,14480,38,-26,-64
0.335595,2879,-2418,8432,-88,-26,-58
0.335735,3682,-2365,30699,195,-46,5
0.335874,-153,-6163,32764,88,-20,-89
0.336013,-999,-3128,9454,258,-7,-26
0.336153,2712,5954,-10379,138,50,18
0.336292,5486,9432,-6499,-69,69,-89
0.336431,895,-179,5670,-151,184,18
0.33657,-441,-3972,3102,-119,88,-26
0.33671,-3080,-7672,-6025,-50,127,-64
0.336849,2163,-2565,-2819,63,44,-1
0.336988,974,-2275,-3191,-13,171,-26
0.337128,372,3790,-8061,44,133,-39
0.337267,-108,4149,-10349,-138,165,-7
0.337406,-1306,765,-3376,-69,146,-45
0.337546,515,595,2571,-163,203,-32
0.337685,503,-3600,2775,-157,120,-20
0.337824,-673,-6480,7757,-38,127,-1
0.337964,-1917,-2822,11854,107,120,-58
0.338103,-108,2904,12355,88,63,-39
0.338242,-655,3529,7735,38,44,12
0.338381,-1812,-822,2277,-13,50,-58
0.338521,-3040,-3876,6347,25,-39,5
0.33866,-3625,-4145,16184,56,-33,-13
0.338799,-3238,-3295,18577,75,-71,-51
0.338938,-3898,-1693,12743,56,12,50
0.339078,-3747,1710,11873,-32,-46,31
0.339217,-7102,1582,18927,19,-148,-7
0.339357,-7434,-1275,22542,-63,-103,56
0.339496,-6276,-2594,15516,-44,-250,119
0.339635,-3854,-1319,9876,-57,-186,18
0.339775,-2616,-2077,10778,-6,-199,88
0.339914,-4287,-856,11156,-69,-103,182
0.340053,-4444,-341,9489,-69,-122,56
0.340192,-4824,32,9968,-63,-90,163
0.340336,-4916,-14,11008,-126,-135,176
0.340471,-4017,-1846,11749,-107,-141,107
0.34061,-2891,-2750,12638,-101,-218,189
0.34075,-2810,-4298,12110,-38,-160,182
0.340889,-2157,-2690,11211,31,-167,170
0.341028,-2954,-252,9883,75,-199,151
0.341168,-3350,2097,8713,12,-148,271
0.341307,-3184,2480,5741,44,-262,145
0.341446,-1942,2428,3961,-57,-167,252
0.341586,-1419,469,5489,-75,-275,233
0.341725,-1524,-2098,6849,-25,-186,214
0.341864,-2258,-2017,5889,-19,-313,246
0.342003,-2007,305,4045,-32,-199,271
0.342143,-1307,3129,1352,-113,-358,265
0.342282,213,3761,-2109,-189,-326,252
0.342421,836,2785,-2540,-277,-250,277
0.342561,192,1617,1192,-377,-282,246
0.3427,98,253,4801,-377,-243,328
0.342839,-1823,-1426,5592,-427,-256,321
0.342979,-1408,-1087,7314,-371,-256,277
0.343118,944,1609,10200,-452,-237,334
0.343257,2157,-1609,14308,-289,-275,328
0.343397,1233,-1458,22810,-258,-179,290
0.343536,-1240,3649,28741,-113,-192,315
0.343678,-1974,4774,22433,-220,-109,347
0.343815,722,1162,13893,-88,-211,315
0.343954,1180,601,15206,-50,-122,378
0.344093,2062,987,24851,75,-141,296
0.344232,-71,2147,23739,88,37,328
0.344372,-1877,2091,10927,188,-52,353
0.344511,-126,3448,496,182,-14,334
0.34465,343,4602,-623,113,-58,334
0.34479,1830,3365,2846,138,12,315
0.344929,843,1303,-465,94,44,321
0.345068,1965,939,-5422,126,18,328
0.345208,109,3330,-4342,88,114,353
0.345347,-606,5393,-1446,-6,88,315
0.345486,-787,3720,-3730,19,82,321
0.345629,-487,3246,-6893,-189,69,391
0.345765,-135,830,-3289,-38,6,309
0.345907,572,-673,4385,-201,37,290
0.346043,-611,-446,5210,-19,31,378
0.346183,-669,-1091,2107,-88,12,328
0.346323,-1243,1028,2821,-32,-20,309
0.346461,-1053,2629,5732,-32,-46,366
0.346601,-287,1842,7292,-113,-116,321
0.34674,-620,349,6974,0,-97,296
0.346879,-603,-52,8180,-113,-148,378
0.34702,-513,1058,11374,6,-192,309
0.347158,-413,1953,12357,-44,-179,309
0.347297,-1012,2129,10112,0,-211,334
0.347436,-860,2849,8636,-69,-243,366
0.347576,83,3347,10577,25,-262,265
0.347715,-37,2824,13831,-88,-294,404
0.347855,465,2576,14441,6,-288,277
0.347994,724,3211,12512,-57,-237,359
0.348133,1296,3360,12036,-63,-256,315
0.348273,1687,2162,13456,19,-199,347
0.348412,0,7543,17504,-19,-154,265
0.348551,-18009,32764,20212,63,-218,423
0.34869,-30635,32764,20430,94,-122,479
0.348831,-26264,32764,22653,38,-135,625
0.348969,-13675,25477,19902,19,-97,688
0.349108,-7234,18326,13446,-50,-218,707
0.349247,-5910,17281,9373,-38,-205,663
0.349387,-2930,12089,9861,31,-301,688
0.349526,-2025,4105,8800,-94,-154,713
0.349666,3445,-6138,8038,75,-160,625
0.349805,6871,-5655,8718,100,-20,701
0.349945,5321,545,13021,201,-103,549
0.350083,658,4316,8742,-19,37,631
0.350223,-224,1040,-6255,-57,-52,650
0.350362,3501,-5330,-13140,-32,31,574
0.350501,3396,-10973,-4151,25,-26,587
0.35064,2795,-6330,9033,132,101,669
0.35078,814,-1692,7275,88,127,618
0.350919,-2447,2372,-5588,195,-14,612
0.351058,-1928,6288,-12220,19,57,637
0.351198,1126,4151,-1605,-38,-71,593
0.351337,1243,13,8367,-119,82,663
0.351476,215,-4220,3267,-75,-14,568
0.351616,1610,-3777,1047,38,57,612
0.351755,1142,3122,9715,38,-26,555
0.351894,-863,3332,11133,-25,152,656
0.352034,-1327,545,379,-32,-65,562
0.352173,61,869,499,50,-20,549
0.352312,1411,-374,14770,-32,-179,574
0.352452,2956,544,22852,94,-97,581
0.352591,2512,5334,15334,75,-160,524
0.35273,998,9657,7521,226,-167,606
0.352871,207,10871,7940,56,-218,536
0.353009,259,8888,10780,38,-231,549
0.353148,1511,4322,10251,31,-307,536
0.353289,2776,1461,8386,-50,-313,530
0.353427,5302,-1759,8434,144,-262,492
0.353566,4904,555,10048,44,-224,505
0.353705,4339,2748,9492,132,-39,498
0.353845,1657,748,4515,-32,-135,479
0.353984,3721,-1359,2975,38,-46,442
0.354125,3775,-1702,10578,0,-77,429
0.354263,4565,-371,20648,63,63,442
0.354402,3335,146,18490,31,12,429
0.354543,1176,-307,8499,38,127,423
0.354681,1036,-757,4732,100,-71,372
0.35482,1745,-2382,9560,-44,57,416
0.35496,2838,-4782,15644,176,-135,366
0.355099,2396,-3798,15039,94,25,385
0.355238,2397,-740,10583,232,-77,372
0.355378,1960,868,8404,163,-52,353
0.355516,1664,2433,8585,170,-128,353
0.355656,1223,1748,6685,75,-103,321
0.355797,2119,-336,4629,25,-84,372
0.355934,2408,-1305,4543,100,-135,315
0.356076,2421,-1261,5080,25,-20,340
0.356215,2207,-681,4694,88,-46,328
0.356352,1239,-167,3968,-6,-20,296
0.356492,781,249,5296,119,-90,309
0.356631,777,766,6272,-19,12,284
0.35677,1485,-91,6428,82,-173,315
0.35691,1807,-708,6406,-25,18,315
0.357049,1860,-404,5379,82,-186,233
0.357188,1630,-363,4187,-6,18,328
0.357327,1119,-538,3925,31,-148,290
0.357467,729,-1153,4276,31,-7,265
0.357606,1250,-993,5084,31,-148,258
0.357746,1961,-802,6088,56,-65,290
0.357885,3176,-1156,7612,-25,-39,246
0.358024,3396,-864,9661,119,-65,265
0.358163,2317,0,12148,19,-33,220
0.358302,1328,-214,12456,94,-52,265
0.358442,1805,-1638,11101,82,-71,195
0.358581,2301,-1857,10973,94,-116,239
0.358721,2959,-1414,11600,107,-26,239
0.358863,3155,-283,10548,107,-160,201
0.359,2107,-223,7504,157,25,220
0.35914,1720,-382,5430,75,-135,151
0.359278,1823,-442,5668,107,31,227
0.359417,2211,-1037,7716,25,-109,176
0.359557,2751,-1386,8528,82,31,201
0.359697,2144,-1230,8743,19,-46,157
0.359841,1616,-459,9184,82,31,195
0.359976,1080,-620,8793,6,-39,132
0.360117,1165,-1578,8447,0,-33,195
0.360253,1524,-2523,8497,50,-33,182
0.360392,2167,-1729,9915,19,-26,126
0.360532,2020,-1733,10844,88,-77,119
0.360672,1486,-1742,10258,-38,-33,201
0.36081,1054,-1080,9588,94,-90,107
0.36095,1294,-1288,9565,12,-116,119
0.361089,1777,-1390,9389,19,-52,151
0.361228,2051,-1939,8776,-13,-160,107
0.361368,2476,-2558,8293,19,-39,119
0.361507,1467,-1896,8365,25,-90,145
0.361646,1615,-1948,8810,-25,-26,62
0.361786,1064,-2529,8318,75,-65,107
0.361925,1385,-2402,9145,-44,-20,138
0.362064,1336,-1804,10829,38,-52,69
0.362204,1048,-1918,11776,25,-39,62
0.362343,709,-2070,11242,56,-33,119
0.362482,180,-2575,10850,38,-65,24
0.362621,243,-2134,11145,88,-20,126
0.362761,524,-2145,11240,82,-128,56
0.3629,738,-2447,10459,31,-33,81
0.363039,665,-2033,9015,132,-154,43
0.363179,1211,-1305,7887,50,-77,69
0.363318,614,-1503,7056,113,-90,37
0.363457,486,-1951,6403,12,-77,62
0.363597,511,-1822,5991,63,-148,37
0.363736,665,-2269,6572,31,-26,43
0.363875,443,-2041,8079,31,-128,50
0.364015,-16,-1882,8431,6,-26,43
0.364154,-406,-1608,7267,63,-122,5
0.364293,-436,-1738,6887,-19,-52,62
0.364432,-303,-1944,7222,19,-97,18
0.364572,-12,-2147,6888,-44,-84,56
0.364711,-14,-2490,7076,50,-148,-1
0.36485,-246,-2367,7847,19,-39,50
0.36499,-525,-1869,7631,25,-122,5
0.365129,-248,-1647,7354,38,-103,50
0.365268,-503,-1521,8038,-13,-58,43
0.365408,-519,-1699,8642,94,-167,-51
0.365547,67,-2054,9333,-6,-46,69
0.365686,-620,-1969,10855,63,-128,5
0.365826,-682,-1611,11169,44,-26,69
0.365965,-846,-1532,10008,63,-128,-26
0.366104,-659,-1355,9130,56,-39,81
0.366244,-462,-1521,8206,12,-135,-20
0.366383,723,-1971,7685,75,-58,56
0.366522,620,-2448,7893,-25,-116,12
0.366661,689,-1871,8234,113,-26,12
0.366801,-327,-1818,7796,-13,-109,43
0.36694,-380,-1226,7751,75,-46,-7
0.367079,-750,-804,7636,38,-84,12
0.367219,-577,-466,8528,25,-46,43
0.367358,-969,-70,8774,31,-90,-1
0.367497,-1350,-311,7927,25,-77,31
0.367636,-236,-429,8522,31,-97,50
0.367776,-695,-218,8985,-6,-97,-7
0.367916,412,222,9280,107,-103,18
0.368054,289,194,8859,-13,-52,18
0.368194,174,440,8684,94,-71,50
0.368335,-410,510,8936,31,-103,12
0.368472,-43,1075,8806,63,-65,31
0.368611,-109,819,8575,0,-84,56
0.368751,353,496,8991,56,-84,-1
0.36889,258,300,8425,56,-84,56
0.369029,591,-472,8012,38,-52,37
0.369169,511,228,8208,63,-128,24
0.369308,-223,204,7511,44,-26,37
0.369448,2,615,7058,107,-122,18
0.369587,-414,1220,6797,19,-71,43
0.369727,-168,1195,7099,12,-109,50
0.369867,-213,826,7879,31,-77,31
0.370006,-373,30,8723,38,-84,43
0.370144,-365,61,9208,0,-109,43
0.370283,-267,283,9296,6,-65,37
0.370423,37,1151,9015,100,-97,43
0.370562,133,697,8221,-13,-90,37
0.370703,-2,1304,7943,82,-84,56
0.37084,68,740,7951,-19,-77,43
0.37098,11,557,8204,63,-97,37
0.371121,270,340,7218,38,-52,31
0.371258,500,383,6867,31,-109,31
0.3714,175,878,7511,31,-26,81
0.371537,77,913,7606,12,-97,50
0.371677,75,933,8112,75,-26,5
0.371816,-103,554,8643,-19,-97,100
0.371955,537,573,8688,94,-71,18
0.372095,717,183,9206,-19,-14,56
0.372234,422,720,10364,138,-103,43
0.372373,-111,1205,9962,-19,6,56
0.372512,-172,1366,9492,126,-109,12
0.372652,-360,1187,9671,19,-26,88
0.372791,99,1359,9274,44,-90,24
0.37293,705,1264,8022,56,-39,37
0.373069,729,720,7398,44,-90,24
0.373209,5,885,7479,63,-39,75
0.373348,179,585,6275,-13,-52,56
0.373487,423,576,5811,107,-103,5
0.373627,244,788,6621,-50,-77,69
0.373766,703,978,7080,88,-58,43
0.373907,568,932,6954,12,-84,62
0.374045,253,843,7718,19,-109,31
0.374184,364,802,9008,25,-39,75
0.374323,430,851,8880,12,-116,37
0.374463,1295,1032,8826,69,-90,-7
0.374603,825,1196,9099,0,-65,81
0.374741,973,1457,8895,56,-84,5
0.374881,718,935,7719,25,-84,50
0.375021,791,875,7650,63,-77,-7
0.375159,501,1003,7594,-63,-58,75
0.375299,800,997,7557,63,-65,24
0.375438,532,1074,7185,50,-77,43
0.375577,378,956,6974,12,-33,43
0.375717,381,874,7168,-13,-97,37
0.375857,450,635,7098,75,-58,12
0.375997,738,672,7975,-19,-52,56
0.376134,369,906,8436,25,-65,24
0.376274,572,1177,8789,31,-84,37
0.376414,166,1199,9249,38,-90,18
0.376552,-74,1280,8641,50,-46,62
0.376692,544,1198,7932,44,-128,-20
0.376832,736,752,7778,-6,-46,50
0.37697,1177,1260,8252,75,-116,43
0.37711,815,1178,8150,38,-46,5
0.377249,538,1262,8241,19,-71,50
0.377388,178,1225,8318,44,-46,5
0.377527,378,1230,7907,-6,-33,81
0.377666,737,977,7471,63,-65,12
0.377806,847,852,8836,31,-52,24
0.377946,191,1112,9689,25,-20,31
0.378085,-278,1219,8680,12,-71,12
0.378224,-124,1157,8476,19,-39,62
0.378363,-211,1327,8449,94,-109,-20
0.378502,680,1602,7612,0,-71,43
0.378642,597,1022,7355,12,-90,75
0.378781,283,1386,7906,44,-65,-45
0.37892,-380,931,8083,-6,-65,88
0.37906,-195,1479,8455,69,-65,24
0.379199,-277,1427,7694,-25,-116,31
0.37934,525,1221,7762,63,-71,18
0.379479,839,1501,7716,-19,-90,56
0.379617,1767,3303,7937,44,-97,24
0.379757,3374,5477,8545,63,-77,-7
0.379897,3672,6608,8493,-6,-52,31
0.380035,3797,6622,8886,63,-122,-45
0.380176,3277,5713,9475,-19,-65,31
0.380313,2128,4985,9236,113,-77,-77
0.380453,1319,3680,8588,12,-84,5
0.380592,340,2587,7639,56,-52,-7
0.380731,-274,1735,6945,38,-116,-1
0.380878,-690,919,6661,31,-71,-32
0.38101,-1087,599,5742,6,-77,-20
0.38115,-732,-268,5104,-32,-39,24
0.381289,-1163,-466,5889,25,-77,-26
0.381428,-1416,-105,6848,-19,-1,12
0.381571,-1269,-73,7994,31,-77,18
0.381707,-1304,376,8441,-44,-14,-13
0.381846,-1024,712,9316,12,-52,43
0.381985,-873,929,10689,25,-65,-13
0.382125,-929,1000,11374,44,-52,24
0.382264,-848,729,11061,-19,-26,31
0.382403,-1171,1144,10476,94,-116,-13
0.382542,-727,1160,9821,38,-109,18
0.382682,-477,1596,9837,19,-58,31
0.382821,-833,1485,9734,19,-116,5
0.38296,-644,870,8516,6,-71,-1
0.3831,-762,701,7544,88,-109,37
0.383239,-106,25,7488,-6,-116,-20
0.383379,-644,388,8822,38,-65,50
0.383518,-902,909,9790,31,-97,37
0.383657,-1297,932,9476,50,-65,12
0.383796,-965,1465,9871,12,-39,-1
0.383936,-165,1179,9828,50,-97,18
0.384075,446,550,9669,50,-52,18
0.384214,717,136,9236,12,-39,24
0.384354,72,367,9036,75,-90,-7
0.384493,206,1280,10176,69,-39,24
0.384632,-140,1229,9926,119,-103,-45
0.384772,-289,343,9014,-13,-77,18
0.384911,65,154,8655,113,-65,37
0.38505,-687,-497,8864,63,-135,-45
0.38519,-994,52,9682,56,-7,43
0.385328,-1613,454,8869,44,-97,24
0.385468,-939,1135,7798,88,-128,-13
0.385607,-421,1211,7429,69,-109,12
0.385747,343,1561,7321,12,-90,5
0.385886,374,1089,7094,44,-84,24
0.386025,198,1170,7336,25,-128,-45
0.386165,-338,1069,7347,63,-97,62
0.386304,11,1208,7798,38,-109,-32
0.386443,285,920,8015,31,-84,24
0.386582,-194,655,7924,75,-65,12
0.386722,-536,-35,8279,56,-65,-7
0.386861,-1012,-52,8122,88,-90,12
0.387,-724,232,7882,19,-52,24
0.38714,-434,393,7562,69,-97,-13
0.387279,181,536,7037,12,-39,50
0.387421,-110,605,7134,113,-103,-26
0.387558,-265,1148,7750,-25,-33,50
0.387697,-668,1221,7225,63,-128,-26
0.387837,248,1197,6962,12,-52,24
0.387975,399,794,6868,44,-20,-7
0.388115,412,383,7469,75,-103,5
0.388254,274,40,7938,-19,-46,31
0.388393,-806,-621,7499,69,-52,-26
0.388533,-267,-180,8796,56,-33,18
0.388672,-614,-66,9204,75,-65,12
0.388811,-234,220,9085,38,-52,-26
0.38895,-1185,51,8983,107,-39,-1
0.38909,-1535,350,8774,12,-71,43
0.389229,-1911,565,8430,44,-97,-26
0.389369,-804,634,8513,12,-90,50
0.389509,-301,612,8095,38,-103,-7
0.389648,-242,241,8081,31,-122,-13
0.389788,-129,796,8133,38,-65,12
0.38993,-645,484,8063,63,-58,-1
0.390065,250,153,8757,0,-128,-26
0.390204,-235,340,9068,31,-33,18
0.390344,167,36,9417,63,-77,-20
0.390483,-417,-430,9333,75,-20,50
0.390623,-764,-603,10047,38,-77,-1
0.390762,-1133,-375,10518,63,-39,-7
0.390902,-880,208,9631,94,-33,-1
0.391044,-559,196,8907,31,-77,5
0.39118,-887,224,9287,56,-39,5
0.391319,-883,1030,8847,69,-84,12
0.391458,-485,1053,7892,56,-103,12
0.391598,-278,616,7837,6,-77,-13
0.391737,643,777,7859,69,-141,12
0.391876,415,741,7956,6,-71,-13
0.392016,499,620,8656,94,-97,12
0.392155,-253,650,8045,25,-90,-7
0.392296,916,450,7677,31,-52,37
0.392433,913,422,8246,94,-84,-39
0.392573,1071,294,8755,25,-71,-39
0.392712,861,-69,8325,50,-65,43
0.392852,155,-222,8060,100,-58,-1
0.392992,-454,117,7855,44,-84,-58
0.39313,-671,1153,7530,56,-103,31
0.393269,-445,1087,6630,88,-46,-32
0.393409,-623,1169,6896,-6,-77,-20
0.393548,-370,561,6848,44,-84,5
0.393687,261,406,7101,50,-84,-32
0.393827,518,788,8061,38,-65,18
0.393966,382,445,6958,50,-122,-39
0.394105,447,940,6461,6,-58,-1
0.394245,536,1718,7283,94,-90,-39
0.394384,450,1654,7875,-6,-52,18
0.394523,788,584,8162,44,-84,-32
0.394663,1037,-137,8570,-25,-84,5
0.394802,1136,351,8448,107,-97,-58
0.394941,1143,639,7988,31,-58,5
0.39508,503,510,7459,75,-97,-51
0.39522,93,1191,7098,31,-65,-26
0.395359,503,1133,6829,-6,-46,24
0.395498,1064,867,7271,50,-128,-70
0.395638,1622,786,8050,-6,-39,-13
0.395777,1567,371,8093,69,-77,-39
0.395916,725,154,8288,-6,-90,-51
0.396056,-173,991,8803,75,-52,5
0.396195,449,869,8424,12,-65,-45
0.396336,1222,227,7933,31,-58,-39
0.396473,1536,-53,8370,50,-84,-45
0.396613,1397,117,8288,-19,-71,-20
0.396752,777,416,8010,113,-84,-77
0.396891,159,212,7604,-13,-84,-51
0.397031,-253,517,7792,38,-39,-26
0.39717,18,1221,8051,6,-46,-64
0.397309,112,1051,8060,38,-103,-39
0.397449,-412,590,8330,-6,-52,-39
0.397589,-46,645,8262,12,-52,-51
0.397727,-91,612,8064,44,-84,-26
0.397867,667,502,8850,31,-122,-70
0.398006,520,102,8820,6,-77,-1
0.398145,356,-133,8357,50,-141,-83
0.398284,42,820,9122,38,-46,-7
0.398424,-449,697,9596,6,-90,-58
0.398563,-207,388,9420,31,-65,-13
0.398702,-662,358,8932,25,-141,-77
0.398841,-282,387,9196,12,-39,-13
0.398981,-128,609,9112,31,-77,-32
0.39912,223,718,7850,56,-33,-58
0.39926,246,528,7311,12,-97,-58
0.399399,-190,630,7324,19,-71,-32
0.399538,-289,424,7875,44,-90,-32
0.399678,-718,189,8252,-13,-90,-51
0.399817,-293,-117,8305,56,-84,-26
0.399957,-744,177,8817,12,-103,-64
0.400095,-1065,-166,9405,94,-103,-45
0.400235,-1083,218,9626,-6,-71,-20
0.400374,-985,-636,9502,69,-90,-45
0.400514,-111,111,9589,75,-52,-32
0.400654,-1000,180,9849,12,-26,-26
0.400792,-918,461,9990,63,-116,-20
0.400932,-2033,382,8993,38,-46,-51
0.40107,-1175,836,9396,75,-71,-13
0.40121,-1272,1171,9112,12,-52,-39
0.401349,-562,961,8118,69,-77,12
0.401489,-115,679,7600,38,-103,-45
0.401628,-1148,714,8122,12,-122,-7
0.401767,-384,606,8954,38,-71,-32
0.401907,-840,23,8728,56,-116,-32
0.402046,-475,-197,9097,38,-109,-13
0.402185,-755,-158,9431,56,-71,-32
0.402326,-732,263,9558,31,-103,-7
0.402463,-894,608,8978,94,-84,-20
0.402603,-1274,994,8133,19,-65,5
0.402743,-707,1027,7128,75,-52,-58
0.402882,-546,247,7505,44,-109,-26
0.403023,-29,470,8290,12,-7,5
0.40316,-212,150,7984,63,-103,-32
0.4033,-732,418,8338,56,-20,5
0.40344,-1459,1198,8887,63,-52,-7
0.403578,-1315,1884,9127,44,-58,-39
0.403718,-664,1528,8330,25,-116,-1
0.403857,-487,992,7848,69,-46,-20
0.403996,170,385,7775,0,-160,5
0.404136,38,189,7963,69,-90,-32
0.404275,-298,878,8121,31,-128,-1
0.404414,-252,1048,7551,6,-71,-26
0.404553,-190,1065,7106,88,-109,12
0.404693,-262,863,7675,6,-90,-32
0.404832,-603,180,8739,19,-52,-7
0.404971,-322,-357,8991,75,-97,-1
0.405111,-398,-342,9631,44,-71,-32
0.40525,-843,383,10353,50,-46,-20
0.405389,-1069,1180,9795,50,-58,31
0.405529,-902,1201,8693,63,-26,-39
0.405668,-730,1026,8250,31,-71,18
0.405807,268,972,7877,38,-90,-26
0.405947,769,913,7878,75,-90,-26
0.406086,880,1192,8450,-6,-90,-13
0.406225,319,1629,8314,94,-128,-45
0.406364,-115,1506,8468,38,-90,18
0.406504,-745,1397,9268,25,-58,-20
0.406643,-236,1251,9283,63,-167,-26
0.406782,322,99,8266,-19,-46,5
0.406922,536,-171,8500,82,-148,-20
0.407061,183,717,8883,56,-52,-45
0.4072,12,1052,7962,12,-116,-20
0.407339,83,1390,7519,75,-26,18
0.407479,155,1320,7149,12,-103,-51
0.407618,1055,2017,6698,50,-65,-26
0.407757,1050,1674,6834,88,-109,-26
0.407897,626,1196,7503,0,-58,-32
0.408036,-461,1034,7627,50,-71,-13
0.408176,-613,867,8154,44,-77,-26
0.408315,-296,728,9099,44,-71,-39
0.408454,323,939,8290,50,-103,-13
0.408593,1520,1472,6736,44,-65,-26
0.408732,852,1534,6175,19,-116,-32
0.408872,1134,1821,6522,38,-90,-32
0.409011,405,1612,7024,-38,-173,-51
0.409151,502,1102,8332,88,-58,-32
0.40929,203,812,8981,-6,-84,-1
0.409429,-197,834,8082,69,-128,-83
0.409569,148,696,7494,38,-58,-32
0.409709,286,1280,7033,25,-71,-45
0.409848,834,595,6946,12,-84,18
0.409986,1123,601,8412,25,-20,-77
0.410126,611,962,9535,44,-52,-45
0.410265,377,901,9587,12,-65,-20
0.410404,465,1458,8902,44,-71,-13
0.410544,494,2322,8154,25,-90,-70
0.410683,1001,2233,7936,25,-84,-45
0.410824,1024,1688,7278,31,-109,-39
0.410965,1008,84,8037,6,-71,-58
0.411101,83,-444,9827,63,-135,-39
0.41124,172,-12,10185,38,-14,-32
0.411379,356,760,9966,88,-84,-77
0.411519,538,1301,8904,75,-39,-7
0.411658,520,1614,7491,0,-52,-45
0.411798,903,1422,7488,-6,-65,-70
0.411938,1168,638,8030,44,-128,-32
0.412076,1288,1085,8801,-32,-58,-45
0.412215,1251,1384,8146,38,-71,-89
0.412355,444,1142,7160,0,-116,-7
0.412494,-218,1022,8311,107,-97,-77
0.412633,-470,1465,8922,-6,-65,-26
0.412774,381,539,8221,56,-90,-83
0.412912,994,-149,8650,56,-20,-20
0.413051,464,-524,9254,38,-122,-89
0.413191,186,-217,9503,56,-20,-13
0.413331,106,426,8777,31,-39,-70
0.413469,-158,851,7287,38,-90,-39
0.413609,56,611,7129,44,-103,-58
0.413748,135,1740,7976,38,-58,-32
0.413887,-269,1631,8075,0,-71,-64
0.414027,163,1924,8195,0,-39,-20
0.414166,-541,1010,7723,19,-20,-70
0.414305,-540,91,8638,-25,-90,-58
0.414444,-212,-259,10328,12,25,5
0.414584,708,-61,10464,38,-46,-58
0.414723,1180,42,9743,19,25,-58
0.414862,540,1200,9227,-6,-20,-45
0.415002,449,1026,9421,19,-1,-39
0.415141,-221,926,10328,-50,-14,-45
0.41528,-205,559,9535,-19,-46,-51
0.41542,-144,239,8055,0,-71,-70
0.415559,171,1008,7787,19,-26,-58
0.415698,-90,1258,7288,-6,-84,-51
0.415837,-110,1209,6726,-44,-33,-32
0.415977,-559,453,7328,25,-58,-115
0.416116,-659,-39,9133,-57,-7,50
0.416255,-1216,-490,10439,44,-39,-102
0.416395,-604,197,9784,-13,-14,-32
0.416534,-505,212,8862,56,-39,-58
0.416673,-286,928,8706,6,18,-20
0.416813,-596,960,7562,38,-84,-70
0.416952,462,960,7273,25,-20,-1
0.417091,603,920,7007,6,-90,-77
0.41723,899,709,7213,50,-52,-32
0.417372,467,556,7216,31,-58,-70
0.417513,118,791,7093,82,-39,-64
0.417648,65,672,7623,-50,-65,-32
0.417788,243,589,7686,75,-52,-26
0.417927,880,373,7915,25,-97,-102
0.418066,1128,593,9430,38,-14,-32
0.418206,969,905,8653,38,-97,-32
0.418345,946,1030,7054,0,-14,-45
0.418486,1216,451,7852,44,-52,-83
0.418623,415,1020,7802,69,-39,-64
0.418763,894,987,7073,-6,-84,-39
0.418902,513,1046,6784,69,-39,-89
0.419041,705,1017,7360,31,-58,-45
0.419181,818,1021,7166,-25,-84,-70
0.419321,1724,545,6781,44,-46,-32
0.419461,2857,26,7889,0,-103,-58
0.419599,3998,-431,8551,6,-84,-89
0.419738,4452,-170,8131,-13,-128,-45
0.419878,4836,-1016,7934,25,-154,-64
0.420017,5306,-596,8033,25,-141,-108
0.420156,4961,-489,7950,-6,-135,-13
0.420295,4725,422,8495,56,-148,-127
0.420435,4664,37,8415,-13,-103,-108
0.420574,4593,-710,6876,31,-90,-108
0.420714,5592,-1392,7420,-6,-58,-58
0.420852,6325,-2079,8926,12,-97,-146
0.420992,7046,-2920,7899,19,-71,-134
0.421131,9384,-3871,7968,0,-109,-45
0.421271,10340,-3957,10466,94,-128,-159
0.42141,11331,-3184,11365,12,-109,-64
0.421549,11664,-1838,9427,69,-167,-102
0.421689,12550,-2268,9500,6,-231,-165
0.421828,14223,-2003,10598,31,-148,-121
0.421967,14466,-2287,9052,12,-205,-197
0.422106,15785,-2903,9432,-13,-167,-153
0.422247,12414,-1649,10609,31,-116,-260
0.422385,12639,-1537,10545,-25,-135,-203
0.422524,11278,-1284,8757,31,-109,-247
0.422663,10238,-1892,7537,38,-90,-285
0.422803,8309,-1146,8337,-6,-90,-222
0.422942,6834,-1713,9705,-25,-84,-298
0.423082,5032,-2657,9533,44,-33,-247
0.42322,2397,-1344,9548,-25,-14,-247
0.42336,1941,-1172,8796,63,-58,-310
0.423499,1632,-621,7158,19,18,-247
0.423639,1206,-964,7592,31,18,-285
0.423778,-569,-618,9819,56,31,-260
0.423917,-1789,2076,9728,82,76,-317
0.424057,-1992,3059,6996,75,31,-279
0.424196,-1365,4582,6734,88,-7,-285
0.424335,-1686,6369,7631,38,12,-273
0.424475,326,6954,7736,31,-39,-279
0.424614,-755,7078,6652,82,-26,-266
0.424753,-2219,6996,8081,82,-65,-317
0.424893,-2842,7466,7617,75,-90,-273
0.425032,-1543,6350,6223,50,-154,-304
0.425171,-1069,5818,6101,31,-116,-317
0.425311,317,3786,7177,69,-141,-298
0.42545,499,1720,7664,38,-116,-304
0.425589,-596,-1286,7391,-6,-46,-298
0.425728,-1245,-2366,8884,31,-122,-279
0.425868,-1275,-3061,8676,6,-148,-298
0.426007,615,-2410,7978,44,-103,-279
0.426146,2187,-2116,7699,-32,-167,-317
0.426286,2666,-3620,7497,-6,-135,-235
0.426425,2595,-3530,8846,38,-160,-329
0.426564,1843,-3559,10359,31,-109,-228
0.426704,1048,-1796,10553,94,-192,-323
0.426843,3209,-578,10244,-19,-122,-279
0.426983,4537,-1088,9094,44,-192,-279
0.427121,5651,-1924,9570,-6,-179,-241
0.427261,7197,-2962,11428,0,-205,-336
0.427401,7074,-2690,11799,-6,-167,-241
0.427541,8435,-2608,11150,56,-224,-323
0.427679,8403,-563,10770,-19,-224,-254
0.427818,8622,1386,11561,50,-199,-260
0.427962,7417,2585,11978,63,-320,-317
0.428097,6420,4793,11428,6,-192,-317
0.428236,3557,4293,11447,50,-237,-260
0.428375,1832,7590,11805,38,-218,-342
0.428514,-153,7323,10419,44,-179,-336
0.428654,-371,7731,10318,25,-135,-292
0.428793,-324,6647,9645,25,-65,-273
0.428932,-1293,4708,8959,44,-84,-323
0.429072,-1006,3563,9237,82,-52,-266
0.429211,-2577,2576,9408,75,-58,-266
0.429351,-1184,1406,9742,50,-26,-279
0.42949,-1522,801,8131,138,-77,-235
0.42963,-566,17,6407,63,-77,-285
0.429769,-448,544,5531,170,-65,-228
0.429907,379,609,4598,31,-52,-273
0.430047,958,43,2233,113,-109,-273
0.430186,830,524,722,94,-84,-260
0.430325,1816,526,1095,138,-128,-298
0.430465,1318,1176,1968,31,-26,-216
0.430604,-132,1044,1754,126,-128,-310
0.430743,333,2940,1510,25,-52,-235
0.430883,-1052,2431,1646,63,-26,-260
0.431022,-1651,3413,2774,25,-65,-273
0.431161,-2474,3587,4015,6,31,-222
0.431301,-3122,3536,4763,-19,-20,-254
0.43144,-2984,4313,5062,19,25,-247
0.431579,-3116,3071,6999,-6,12,-209
0.431719,-3106,2646,8010,38,6,-260
0.431858,-2734,2934,9020,44,31,-165
0.431997,-2349,1503,10188,50,-7,-190
0.432136,-2253,2069,10857,82,18,-178
0.432276,-1366,1179,10977,100,6,-209
0.432415,-626,-109,10757,94,31,-127
0.432554,463,-327,11637,75,-39,-171
0.432695,1322,-1453,12145,94,-7,-178
0.432833,2571,-1795,13264,94,-14,-159
0.432972,2510,-2368,14116,132,25,-140
0.433112,3217,-2407,14572,100,-1,-127
0.433251,2888,-2049,14368,214,-14,-178
0.43339,3232,-308,12538,100,-20,-153
0.43353,3974,-92,10526,132,-20,-115
0.433669,5303,-424,10421,182,-77,-153
0.433808,5814,-535,10743,56,-52,-64
0.433947,5856,-1451,9988,69,-77,-203
0.434087,6206,-1584,8000,113,-97,-96
0.434226,7060,-1426,5808,31,-135,-127
0.434365,8246,-1051,5433,75,-154,-127
0.434505,8354,-614,5691,-25,-135,-77
0.434644,8904,468,5412,63,-186,-197
0.434783,7938,500,5610,12,-154,-58
0.434923,7345,1400,7229,25,-148,-115
0.435062,6761,1795,9092,56,-186,-115
0.435201,6951,1256,10085,6,-84,-77
0.435341,7925,1259,10374,56,-186,-96
0.43548,7223,953,10908,50,-65,-39
0.435619,7584,1116,11418,88,-97,-102
0.435759,8122,-194,10449,6,-116,-32
0.435898,8238,-290,8511,107,-103,-89
0.436037,8977,-818,7351,132,-154,-70
0.436176,10143,-380,8175,94,-128,-45
0.436316,10871,-687,7982,75,-122,-77
0.436455,10892,-1674,6759,119,-167,-39
0.436594,10053,-2215,7032,82,-186,-64
0.436734,11271,-2849,7495,82,-160,-51
0.436873,11494,-2150,7790,88,-186,-51
0.437012,11297,-2150,8116,56,-148,-70
0.437152,11170,-1577,7141,94,-154,-45
0.437291,11488,-426,4892,38,-192,-134
0.43743,10571,-309,4124,19,-90,37
0.43757,9531,531,6490,-6,-205,-184
0.437709,9906,133,6906,-6,-128,-39
0.437848,9355,-35,4483,-88,-122,-39
0.437987,8816,332,6113,-25,-103,-115
0.438127,7806,2778,8604,19,-148,-108
0.438266,6554,2654,8396,-44,-116,-39
0.438405,5649,801,6426,-32,-97,-58
0.438545,6245,-79,7147,31,-173,-146
0.438684,5257,427,11961,-13,-97,-20
0.438823,3851,2018,12253,56,-90,-115
0.438963,3644,683,7265,0,-52,-39
0.439102,3674,962,5327,25,-65,-70
0.439241,3094,696,7523,25,-52,-108
0.439381,3710,-304,8746,-25,-7,-64
0.43952,2766,-778,6228,31,12,-39
0.439659,1297,986,4438,63,31,-115
0.439798,-68,2894,4628,88,76,-77
0.439938,-1458,4187,4102,63,25,-20
0.440077,-925,2741,1945,44,69,-96
0.440216,-1470,2443,2231,63,31,-83
0.440356,-1731,2748,5898,100,63,-39
0.440495,-2113,3296,6838,75,95,-58
0.440634,-1639,2355,4298,107,108,-83
0.440774,-1943,2543,1937,69,95,-32
0.440913,-1160,2698,3175,75,152,-83
0.441052,-13,1963,4533,25,95,-45
0.441192,-974,1389,2642,63,178,-58
0.441331,-1767,1094,1050,38,152,-83
0.44147,-4822,4001,3048,69,184,-77
0.441609,-2855,3568,8688,-101,101,-13
0.441749,-5250,2615,7841,19,50,-70
0.441888,-4266,1459,4059,-82,18,-70
0.442027,-2043,-1083,7583,-13,-71,-13
0.442167,-4114,1015,16548,50,-33,-64
0.442306,-4911,3305,17380,-32,-39,-20
0.442445,-5746,1768,10992,50,-77,-32
0.442585,-5007,1696,10672,-44,-173,-32
0.442724,-4354,1119,14957,38,-109,-7
0.442863,-1738,-1063,20476,-82,-173,-13
0.443003,-4194,-1672,20314,-6,-90,18
0.443142,-3748,-1751,17256,63,-154,-58
0.443281,-2851,-1482,17440,44,-109,69
0.443421,-2911,-1432,20452,75,-109,-70
0.44356,-3450,-132,21894,132,-77,37
0.443699,-2993,137,20575,144,-33,43
0.443838,-4573,768,17978,100,-39,31
0.443978,-3219,-190,18210,163,-109,-1
0.444117,-2695,288,19267,157,-26,75
0.444256,-2681,-441,16538,163,-90,-13
0.444396,-2037,319,12757,157,-52,50
0.444535,-1903,435,9061,176,-84,62
0.444674,-751,573,7231,157,-90,5
0.444814,-501,199,5627,170,-109,18
0.444953,370,-224,3179,119,-122,69
0.445092,759,-751,831,138,-90,5
0.445232,953,503,585,126,-135,24
0.445371,-27,798,794,75,-65,88
0.44551,-566,1047,721,119,-109,-7
0.445649,-517,828,-498,25,-90,37
0.445789,146,-240,-996,12,-71,81
0.445928,589,284,483,56,-71,-39
0.446067,885,-412,1332,12,-46,94
0.446207,-343,-460,1264,25,6,62
0.446346,-573,156,231,82,-20,-39
0.446485,-590,722,-237,19,6,75
0.446625,-148,746,119,88,-7,50
0.446764,67,824,-191,-13,50,24
0.446903,70,-16,149,31,44,50
0.447043,-1224,586,1126,50,76,75
0.447182,-2384,3203,1590,88,57,-13
0.447321,-3530,5172,1989,50,57,81
0.44746,-3840,7606,3042,12,37,88
0.4476,-5036,8036,2900,-25,31,62
0.447739,-4702,7843,2637,-38,-84,62
0.447878,-4353,6763,3873,-107,-84,119
0.448018,-3117,3913,5820,-113,-135,50
0.448157,-2603,2735,8636,-32,-116,119
0.448296,-3017,3472,14700,-38,-90,157
0.448436,-4747,3969,16412,-69,-109,88
0.448575,-3728,1271,14620,-19,-97,94
0.448714,-875,-691,13854,-82,-90,107
0.448854,-670,-2222,16436,-25,-20,126
0.448993,-210,-1854,19539,-44,31,113
0.449132,-2204,-2272,17667,19,6,100
0.449271,-2524,-1469,14076,0,-26,100
0.449411,-1898,-965,12624,6,-52,113
0.449551,494,-187,14330,31,-84,119
0.449689,1021,-759,12740,-50,-103,37
0.44983,2076,-2175,11365,-6,-77,132
0.449968,820,-2840,12973,25,-109,88
0.450107,1713,-2457,16332,-6,-84,94
0.450249,3363,-2961,15130,69,-160,56
0.450386,7038,-5319,11026,-88,-116,163
0.450525,10172,-7072,7906,-6,-256,50
0.450665,12544,-8880,8469,-75,-211,119
0.450805,14625,-10060,12083,-13,-307,138
0.450943,14243,-10343,12144,-19,-243,50
0.451083,14470,-8600,10405,38,-313,113
0.451222,14021,-7811,8714,-25,-211,100
0.451363,14452,-6131,7836,69,-288,56
0.4515,14565,-6268,6006,-25,-148,88
0.45164,12555,-3878,3012,-32,-237,31
0.451779,7557,2857,3166,31,-128,56
0.451919,5752,4949,7438,38,-135,56
0.452058,4212,6908,9507,44,-122,126
0.452197,4532,7171,6328,25,-116,81
0.452337,5795,5579,4577,31,-211,126
0.452476,6112,5435,7443,12,-231,151
0.452615,7593,2398,9306,44,-243,163
0.452755,7425,-658,7801,-25,-256,145
0.452893,8586,-2517,7978,82,-269,157
0.453033,7421,-1812,10305,75,-199,170
0.453175,6785,-2164,9160,44,-218,119
0.453312,6330,-2785,4821,56,-167,195
0.453452,5653,-712,2243,82,-135,100
0.45359,5443,-731,3819,-19,-90,138
0.453729,3825,-2388,5912,0,-7,195
0.453869,5336,-5072,3393,-44,12,170
0.454008,3867,-4145,3284,56,-33,157
0.454147,5972,-3029,5954,-13,6,182
0.454287,6666,-2311,6355,25,-58,157
0.454426,4512,-1505,6076,31,12,176
0.454565,3568,-1419,7804,38,-7,214
0.454704,2278,-671,8599,25,-1,138
0.454844,1499,-1053,8905,82,-46,176
0.454983,-80,1565,10990,38,37,201
0.455122,-542,2779,11571,113,18,119
0.455262,-2120,3696,7663,56,69,189
0.455402,-998,5032,4479,50,146,182
0.45554,-1069,5460,5363,119,18,138
0.45568,-171,4333,6139,25,197,189
0.455819,1027,3900,2924,50,88,208
0.455958,632,2900,3444,126,108,113
0.456097,-509,3796,5515,50,165,214
0.456237,-303,1530,5301,82,146,195
0.456376,-70,637,3767,100,114,132
0.456516,-997,1783,4000,75,197,227
0.456655,696,38,5523,94,140,107
0.456796,-1136,478,3182,75,216,145
0.456934,-647,-374,942,-6,159,151
0.457074,-1550,-900,-1259,-19,88,189
0.457213,-3115,36,628,-44,31,43
0.457351,-1065,879,6484,-82,6,208
0.457491,44,-338,11706,-176,50,119
0.45763,-2541,543,10392,-25,-14,100
0.45777,-2425,-159,9927,-138,57,151
0.457909,-3462,435,15504,-69,-33,107
0.458048,-1784,1435,16144,-88,-14,88
0.458187,-833,-51,13369,-101,-46,119
0.458328,129,-21,16264,0,-77,126
0.458466,-1708,2603,21874,-69,-77,50
0.458605,-3604,940,23558,75,-71,81
0.458745,-2408,2453,20864,19,-122,113
0.458884,-1621,1442,17589,-38,-135,37
0.459023,-571,555,19303,88,-160,69
0.459164,-671,1282,20600,44,-71,107
0.459302,-1920,166,17163,44,-122,50
0.459441,-2547,303,12412,0,-148,62
0.459581,-1334,-63,9970,132,-135,50
0.45972,389,582,10187,-50,-141,94
0.459861,452,583,8907,88,-148,12
0.459999,-55,-204,6149,-38,-109,81
0.460138,-211,-721,3268,82,-122,-1
0.460278,645,-1198,3625,12,-154,56
0.460418,446,-608,8131,82,-52,81
0.460556,-687,-529,10080,25,-103,24
0.460694,-1171,347,6486,132,-26,88
0.460834,-915,762,4359,88,-77,31
0.460974,-665,1998,5799,50,6,37
0.461115,-342,1636,4763,56,-46,100
0.461252,-244,1862,1450,0,-7,24
0.461391,-2213,4136,687,88,-52,-7
0.461532,-945,4380,3466,-19,-128,113
0.46167,-263,4054,3432,38,-173,31
0.461809,2101,1958,2155,-57,-294,43
0.461949,5740,936,3783,113,-250,69
0.462088,6187,1598,9566,50,-364,94
0.462228,6887,2911,12892,107,-288,-7
0.462367,7626,834,9870,44,-422,145
0.462506,11664,-1102,6625,113,-377,-1
0.462646,12563,-2080,7829,31,-416,50
0.462784,13399,-3525,12122,82,-211,69
0.462924,11534,-1937,10196,69,-282,-20
0.463063,8598,-2456,3306,19,-103,43
0.463202,7308,-1219,2880,69,-116,-26
0.463342,4702,946,7786,-13,63,37
0.463481,4446,891,8701,31,50,-77
0.46362,6736,437,6540,-13,146,18
0.463761,5025,-2472,6220,6,171,5
0.4639,7267,-3749,9646,-19,95,-64
0.464038,8309,-5509,11984,0,37,94
0.464178,8861,-5440,12633,19,-58,-7
0.464318,10131,-4367,11772,-38,-58,24
0.464456,10685,-3062,12378,-13,-154,56
0.464595,10509,-3391,14244,-38,-109,43
0.464735,10394,-4224,12654,12,-167,-13
0.464874,10426,-1982,11353,38,-90,62
0.465013,8896,1374,15677,44,-186,-26
0.465153,6991,3793,17440,138,12,-20
0.465292,8791,2199,13501,113,-109,18
0.465432,8483,2286,11142,182,12,-13
0.465571,10078,3401,13906,170,-109,-83
0.46571,11492,1675,11283,113,44,31
0.465849,14652,-1320,6534,113,-14,-58
0.465989,15022,-4168,5803,113,-7,-64
0.466128,15430,-6733,8232,38,-46,50
0.466267,17209,-9372,5384,31,-20,-32
0.466407,18044,-9999,1739,0,-128,-96
0.466547,17396,-6314,3920,-6,-167,5
0.466685,15671,-2722,8363,-69,-288,-58
0.466825,14157,-1502,8830,-57,-237,-146
0.466964,13398,-2942,6817,-113,-301,-77
0.467103,13260,-653,7531,-44,-288,-146
0.467244,13592,-355,11208,-63,-160,-115
0.467382,11362,402,12613,19,-192,-140
0.467521,10512,3276,8858,-57,-122,-134
0.467662,8114,3360,4201,-6,-205,-153
0.4678,8536,4481,4528,0,-237,-146
0.467939,8981,3296,8130,-94,-262,-102
0.468078,8564,935,10242,82,-211,-127
0.468218,3586,1860,10881,63,-167,-89
0.468357,296,3978,13000,138,-109,-134
0.468496,-3694,3554,11510,132,-179,-134
0.468635,-2442,2853,7760,107,-116,-115
0.468775,-10,-182,7220,170,-160,-153
0.468914,1117,-460,8541,182,-46,-146
0.469054,372,1750,5988,226,44,-96
0.469193,-643,2272,1578,170,57,-153
0.469336,-1450,3285,-1667,239,69,-134
0.469471,-1472,2746,-2910,132,69,-127
0.469611,-400,2847,-245,132,146,-121
0.46975,12,3772,400,56,146,-140
0.469889,-601,2050,-2417,94,203,-134
0.470029,-864,2624,-3501,82,171,-77
0.470168,-1671,2265,-1048,6,152,-171
0.470307,-2877,3902,-988,-44,50,-83
0.470447,-4246,4552,-2746,-163,6,-171
0.470586,-1259,5820,-768,-163,-71,-121
0.470725,-1179,4355,3571,-251,-20,-127
0.470865,-1121,2564,7491,-107,-77,-121
0.471004,-4857,3816,13721,-44,63,-127
0.471143,-7517,6501,19044,-38,25,-64
0.471283,-9568,9049,14966,119,50,-127
0.471422,-3486,8098,10689,-75,-7,-83
0.471561,-3806,4801,10547,94,6,-89
0.471701,-317,1838,12750,-75,50,-64
0.471841,-1591,-1555,12368,144,101,-89
0.471979,-2306,-1938,13297,56,76,-70
0.472118,-2708,-340,9595,151,25,-102
0.472257,-594,-1097,5072,38,-26,-83
0.472397,698,-80,6422,88,-167,-83
0.472536,636,467,9957,-25,-65,-77
0.472675,257,1220,9598,-38,-288,-184
0.472815,-1048,-1318,10974,-44,-160,-77
0.472954,310,-3891,14697,-88,-262,-134
0.473093,-2355,-2741,14066,69,-135,-178
0.473233,-318,2012,16708,-69,-84,-58
0.473372,-2296,954,13418,-57,-71,-171
0.473511,-2714,768,8306,-69,-71,-134
0.473652,-1410,-143,10443,-101,-116,-77
0.473791,-1951,16,19734,-50,-33,-165
0.473929,-1480,1810,22868,-32,-109,-115
0.474069,-4083,964,15246,19,-14,-83
0.47421,-3712,5281,11926,113,-116,-134
0.474347,-4191,6346,13649,107,-7,-96
0.474486,-6132,9182,14560,157,-116,-58
0.474626,-3650,6335,14267,63,-77,-108
0.474765,-5207,3143,9924,113,-135,-70
0.474907,-3824,969,9212,151,-192,-51
0.475044,-2969,2074,15541,157,-167,-89
0.475183,-3363,1786,14032,144,-179,-45
0.475322,-3372,433,952,107,-173,-20
0.475462,1036,-1671,-2158,94,-269,-102
0.475601,-1200,-233,5558,82,-186,-39
0.47574,-791,-448,8894,56,-141,-20
0.47588,-962,-1972,2177,44,-160,-45
0.476021,-2388,215,-1319,82,-186,-83
0.476158,507,423,2218,31,-135,-7
0.476298,943,308,4563,31,-84,-45
0.476437,-1561,491,5299,56,-39,-58
0.476577,-3541,2053,5439,82,-52,-20
0.476715,-2764,3339,6274,44,6,-26
0.476855,-3891,2944,9799,107,6,-58
0.476995,-2765,2897,12114,82,6,37
0.477133,-2334,2959,7215,44,44,-26
0.477273,-1694,1369,1417,126,-77,-45
0.477412,-814,3361,879,56,18,24
0.477551,-1076,4653,2451,-19,-65,-64
0.477691,-3429,3587,2470,-75,44,-20
0.47783,-2364,1943,2828,-88,-39,56
0.477969,-3050,1624,3137,-88,6,-58
0.47811,-1679,2049,6331,-107,-14,-39
0.478248,-1418,2427,9051,-88,37,62
0.478387,-1960,2754,6370,-107,-46,-7
0.478526,-2528,1808,3243,-63,12,-32
0.478666,177,845,3702,-151,-39,12
0.478805,2253,-1381,4967,-138,12,12
0.478944,2159,-2723,5105,-107,6,-39
0.479084,2240,-2944,4084,-138,44,37
0.479223,2596,-5184,4533,-82,-58,-13
0.479363,5910,-7035,6853,-119,12,5
0.479502,9557,-8943,9159,-69,-52,5
0.479641,13233,-10422,10005,-101,-109,37
0.47978,14617,-12775,5779,-138,-148,24
0.47992,18531,-13112,6075,-145,-262,43
0.480059,19851,-13144,13685,-107,-282,56
0.480198,20914,-12583,18434,-113,-307,69
0.480338,19195,-11123,16680,-69,-250,88
0.480477,17469,-9174,17160,-38,-384,107
0.480616,12069,-4437,19874,50,-288,113
0.480756,10901,332,23581,82,-428,176
0.480895,7826,1664,22595,82,-326,157
0.481034,6174,3760,22829,138,-345,132
0.481173,3861,4391,24573,132,-224,182
0.481312,4045,685,26043,138,-224,182
0.481452,4790,-2675,24076,258,-109,195
0.481591,7878,-5666,17542,182,-186,176
0.481732,12074,-8466,15296,389,-179,195
0.481872,15153,-11168,16165,276,-160,201
0.482009,16738,-13745,12193,327,-128,233
0.482149,18560,-17019,4467,270,-173,227
0.482288,16725,-15308,4534,314,-192,239
0.482427,15879,-13008,8729,276,-275,201
0.482566,14216,-12502,2966,151,-205,233
0.482706,14409,-8953,-2295,232,-294,220
0.482845,9286,-3496,-842,126,-243,176
0.482984,8196,1716,3751,195,-160,208
0.483124,3223,4662,321,44,-135,157
0.483263,130,9624,-3600,63,-97,170
0.483402,-763,14710,-874,63,-84,170
0.483543,-1418,16805,4589,63,18,182
0.483681,-4475,14892,8020,56,88,145
0.48382,-4579,10157,7089,82,88,227
0.483961,-2073,4929,4498,144,63,145
0.484099,1466,-945,5377,38,57,208
0.484238,5508,-6069,5310,239,-20,189
0.484377,9150,-8998,1325,6,18,201
0.484517,9492,-12516,-1202,214,-116,163
0.484657,10185,-9862,-388,63,-148,220
