Average_IMU_SPS_Hz,6550.711
IMU_Time_sec,Accel_X_raw,Accel_Y_raw,Accel_Z_raw,Gyro_X_raw,Gyro_Y_raw,Gyro_Z_raw
0.0,17,-150,8304,50,-97,-32
0.000139,10,-146,8292,31,-65,-1
0.000278,7,-178,8307,44,-52,-32
0.000418,49,-136,8292,44,-84,-39
0.000557,84,-59,8315,0,-52,5
0.000696,22,-100,8330,63,-77,-32
0.000836,-14,-126,8294,38,-58,-26
0.000975,45,-68,8328,38,-65,-7
0.001114,16,-100,8289,25,-65,-32
0.001253,36,-152,8330,38,-71,-20
0.001393,63,-127,8312,88,-141,-45
0.001532,35,-117,8293,12,-26,-39
0.001671,56,-123,8282,44,-26,56
0.001811,45,-112,8270,50,-135,-108
0.00195,2,-112,8295,63,-39,5
0.002089,64,-122,8283,0,-71,18
0.002229,23,-157,8303,50,-65,-58
0.002368,43,-102,8300,44,-45,-7
0.002507,6,-136,8306,50,-109,-32
0.002647,29,-99,8303,63,-77,-32
0.002786,68,-135,8288,-6,-52,5
0.002925,42,-135,8301,69,-65,-32
0.003066,29,-130,8311,38,-71,-7
0.003204,3,-61,8316,56,-97,-39
0.003343,35,-119,8265,31,-45,5
0.003482,24,-84,8293,50,-65,-64
0.003622,27,-112,8330,63,-77,-7
0.003761,18,-133,8298,12,-71,-1
0.0039,28,-113,8290,50,-97,-45
0.004043,-3,-137,8328,19,-33,-20
0.004179,34,-167,8315,69,-77,-13
0.004318,42,-108,8308,38,-77,-39
0.004458,29,-118,8378,63,-90,-1
0.004597,12,-131,8296,31,-33,-70
0.004736,48,-89,8298,6,-109,24
0.004875,68,-129,8288,88,-39,-45
0.005015,42,-143,8319,25,-90,18
0.005154,60,-146,8342,56,-90,-58
0.005293,-2,-133,8314,31,-26,31
0.005433,12,-148,8309,25,-97,-64
0.005572,1,-164,8259,63,-71,-32
0.005711,18,-163,8243,31,-39,24
0.005851,-5,-98,8313,56,-122,-51
0.00599,38,-156,8339,-19,-45,-7
0.006129,41,-115,8312,119,-109,-64
0.006269,38,-98,8344,-19,-20,24
0.006408,9,-134,8310,75,-135,-32
0.006547,-28,-132,8341,69,-26,-45
0.006686,14,-116,8306,0,-97,24
0.006826,21,-133,8310,44,-26,-13
0.006965,76,-168,8309,44,-77,-39
0.007104,39,-141,8300,56,-97,-39
0.007244,6,-98,8289,0,-65,12
0.007383,-16,-162,8281,75,-65,-39
0.007522,7,-114,8298,50,-71,-13
0.007662,20,-120,8314,0,-65,-26
0.007801,27,-98,8327,69,-77,-20
0.00794,10,-136,8284,50,-58,-32
0.00808,-10,-158,8237,25,-84,-13
0.008219,43,-105,8333,44,-71,-7
0.008358,81,-116,8319,56,-71,-45
0.008498,-23,-126,8304,19,-84,5
0.008637,21,-132,8294,50,-65,-26
0.008776,-16,-125,8304,44,-84,-13
0.008915,34,-132,8296,56,-71,-64
0.009055,12,-166,8345,31,-90,31
0.009194,-43,-125,8310,44,-71,-58
0.009333,-2,-122,8357,56,-58,-1
0.009473,34,-117,8272,31,-77,-1
0.009612,68,-105,8262,69,-90,-45
0.009751,60,-133,8320,25,-97,-32
0.009891,35,-160,8350,25,-14,-13
0.010035,13,-111,8306,44,-84,-1
0.010171,54,-131,8290,69,-103,-70
0.010309,33,-156,8274,-19,-20,43
0.010448,37,-185,8294,69,-122,-70
0.01059,38,-113,8244,31,-45,-20
0.010726,18,-139,8268,6,-33,12
0.010866,-4,-133,8289,107,-141,-20
0.011006,38,-127,8250,-19,-26,-39
0.011144,30,-150,8271,113,-97,-45
0.011284,21,-138,8310,0,-58,31
0.011423,-15,-173,8318,63,-58,-51
0.011562,48,-77,8297,38,-52,-7
0.011701,78,-110,8293,44,-116,-20
0.011841,47,-45,8294,19,-33,18
0.01198,40,-138,8295,50,-109,-83
0.012119,-4,-128,8343,50,-45,37
0.012259,21,-114,8331,38,-116,-58
0.012398,10,-139,8322,56,-45,-20
0.012538,41,-123,8316,31,-65,-13
0.012678,-23,-108,8326,50,-58,-26
0.012816,76,-182,8322,44,-45,-20
0.012957,78,-54,8299,38,-103,-20
0.013096,22,-104,8264,63,-26,-20
0.013234,-17,-122,8298,38,-103,-39
0.013373,-35,-137,8315,56,-58,-32
0.013513,44,-70,8316,12,-39,12
0.013652,66,-69,8318,25,-84,-64
0.013791,10,-107,8344,82,-71,43
0.013931,5,-98,8280,31,-52,-77
0.01407,-12,-100,8324,19,-77,-7
0.014211,78,-117,8290,38,-71,5
0.014349,2,-104,8286,31,-58,-64
0.014488,5,-163,8310,56,-65,12
0.014627,49,-134,8323,25,-58,-13
0.014767,-3,-133,8325,50,-71,-39
0.014906,11,-158,8301,38,-65,-26
0.015045,23,-168,8316,38,-77,12
0.015185,75,-101,8337,50,-39,-58
0.015324,46,-69,8330,44,-109,-20
0.015463,-9,-120,8286,63,-39,-20
0.015602,24,-132,8286,0,-71,-26
0.015742,-21,-127,8333,38,-45,-1
0.015881,22,-147,8364,63,-109,-32
0.01602,40,-136,8279,25,-77,-7
0.01616,33,-96,8221,50,-33,-20
0.016299,43,-73,8274,63,-122,-26
0.016438,57,-111,8338,88,-58,-45
0.016578,-18,-133,8308,-13,-71,5
0.016717,41,-72,8321,82,-65,-39
0.016856,-9,-150,8279,31,-90,-26
0.016996,12,-90,8293,0,-52,-13
0.017135,33,-154,8277,50,-71,-7
0.017274,4,-127,8278,88,-116,-20
0.017414,-1,-118,8247,12,-52,-51
0.017553,44,-93,8301,19,-45,24
0.017692,-16,-123,8300,75,-103,-51
0.017831,44,-117,8312,38,-39,-7
0.017971,45,-73,8278,6,-90,-39
0.01811,49,-94,8291,82,-39,-7
0.018249,29,-132,8299,56,-122,-32
0.018389,32,-167,8311,31,-33,-13
0.018528,35,-149,8292,31,-97,-7
0.018667,-30,-98,8306,69,-58,-39
0.018806,12,-114,8322,12,-77,-13
0.018946,58,-137,8347,69,-77,-20
0.019085,-25,-170,8339,44,-77,5
0.019225,22,-140,8294,38,-52,-45
0.019364,5,-99,8278,19,-58,-7
0.019503,44,-92,8270,56,-109,-39
0.019642,13,-121,8288,25,-39,12
0.019782,18,-131,8312,56,-103,-13
0.019921,-13,-135,8339,44,-52,-32
0.02006,3,-109,8332,44,-65,-1
0.0202,56,-106,8361,50,-77,-70
0.020339,52,-121,8336,12,-77,-13
0.020479,17,-166,8300,31,-58,-1
0.020618,33,-98,8284,56,-71,-39
0.020757,49,-141,8262,44,-84,-13
0.020896,28,-153,8353,38,-65,-13
0.021036,-4,-124,8304,75,-103,-64
0.021175,17,-164,8338,19,-33,24
0.021314,39,-136,8299,38,-65,-39
0.021453,-10,-127,8283,69,-90,-7
0.021592,59,-117,8292,25,-65,-58
0.021732,6,-110,8306,25,-52,43
0.021871,13,-126,8296,94,-122,-96
0.022011,29,-132,8284,-13,-33,69
0.02215,-8,-119,8246,69,-65,-64
0.022289,25,-150,8263,63,-116,-26
0.022428,-41,-132,8282,25,-45,-13
0.022569,6,-106,8330,50,-45,-26
0.022708,26,-103,8293,56,-90,-26
0.022846,-22,-120,8302,12,-45,-1
0.022989,50,-142,8320,44,-90,-32
0.023127,-18,-136,8314,50,-65,-13
0.023264,0,-53,8317,38,-58,-51
0.023404,30,-118,8321,25,-71,37
0.023543,11,-186,8295,31,-77,-64
0.023682,30,-118,8283,75,-58,-13
0.023823,26,-140,8291,-6,-58,-7
0.023961,24,-145,8339,100,-65,-7
0.0241,62,-55,8302,-13,-84,-20
0.02424,43,-156,8273,50,-103,-58
0.024379,22,-153,8325,69,-26,24
0.024518,3,-148,8302,25,-90,-32
0.024657,-47,-179,8317,44,-84,-13
0.024797,-9,-154,8315,50,-77,-45
0.024936,46,-130,8345,19,-39,24
0.025075,4,-122,8362,82,-109,-39
0.025215,22,-130,8331,19,-58,-32
0.025354,18,-147,8278,56,-90,-20
0.025493,32,-91,8276,38,-77,-26
0.025633,-7,-147,8285,12,-39,-13
0.025772,49,-74,8302,69,-77,-32
0.025911,36,-128,8309,19,-77,24
0.026051,5,-171,8314,107,-71,-51
0.02619,51,-132,8344,-6,-71,-32
0.026329,54,-171,8306,63,-65,-32
0.026469,2,-152,8313,25,-65,-7
0.026608,-36,-95,8341,44,-90,12
0.026748,15,-177,8320,56,-52,-26
0.026886,-32,-171,8323,0,-84,-20
0.027026,-10,-153,8308,69,-77,-45
0.027165,10,-107,8329,31,-52,5
0.027304,-10,-140,8360,31,-84,-45
0.027444,11,-162,8241,38,-65,-13
0.027583,77,-76,8307,56,-84,-1
0.027722,10,-89,8289,50,-84,-58
0.027862,38,-141,8275,31,-71,-7
0.028001,4,-152,8327,19,-71,-20
0.02814,42,-141,8311,69,-65,-32
0.02828,81,-137,8258,12,-84,-7
0.028419,60,-137,8324,50,-58,-39
0.028558,48,-104,8374,82,-71,-26
0.028698,-18,-156,8302,12,-71,18
0.028837,39,-147,8319,44,-71,-39
0.028976,55,-131,8276,56,-84,-26
0.029115,49,-133,8293,6,-65,-26
0.029255,6,-97,8266,75,-90,-7
0.029394,27,-87,8303,19,-58,-20
0.029533,58,-118,8284,25,-65,-58
0.029673,32,-86,8309,38,-58,12
0.029814,51,-81,8258,63,-84,-39
0.029951,47,-136,8251,12,-77,-32
0.030091,47,-104,8315,56,-52,-7
0.030231,89,-136,8281,25,-58,-7
0.030369,46,-126,8275,44,-90,-39
0.030508,51,-113,8276,12,-39,-7
0.030648,34,-155,8310,50,-58,-32
0.030791,50,-122,8284,63,-103,-39
0.030927,90,-130,8288,12,25,-1
0.031066,64,-156,8291,75,-148,-39
0.031206,12,-118,8276,31,-14,-20
0.031344,-2,-108,8351,25,-84,-13
0.031484,-7,-116,8252,56,-90,-51
0.031623,-43,-113,8246,19,-45,5
0.031762,32,-169,8248,75,-65,-7
0.031901,25,-157,8259,25,-77,-39
0.032041,62,-126,8293,56,-39,-7
0.03218,44,-113,8273,38,-103,-32
0.032319,25,-79,8281,19,-65,-13
0.032459,13,-135,8253,82,-58,-39
0.032599,24,-171,8249,0,-77,5
0.032738,11,-128,8260,88,-71,-51
0.032877,12,-104,8316,12,-52,18
0.033017,36,-105,8320,31,-65,-51
0.033156,83,-101,8252,69,-90,-7
0.033294,65,-130,8297,12,-39,-26
0.033434,28,-83,8274,38,-90,5
0.033573,70,-120,8272,88,-65,-64
0.033713,18,-108,8267,25,-65,37
0.033853,68,-156,8286,44,-65,-32
0.033991,-8,-122,8292,19,-52,-20
0.03413,15,-151,8311,44,-97,-7
0.03427,32,-64,8290,63,-71,-51
0.034412,-15,-74,8284,38,-26,-20
0.034548,27,-137,8297,50,-116,-13
0.034688,92,-158,8254,25,-20,-1
0.034827,51,-64,8302,56,-90,-39
0.034966,21,-102,8347,25,-65,-26
0.035106,24,-84,8316,50,-58,-1
0.035246,18,-108,8330,31,-77,-26
0.035384,-24,-133,8304,63,-90,-45
0.035524,32,-121,8307,19,-39,-7
0.035663,69,-105,8286,56,-97,-51
0.035802,-4,-132,8272,6,-45,5
0.035941,-1,-143,8331,63,-77,-58
0.036081,3,-169,8327,44,-58,-13
0.036221,-13,-162,8306,31,-65,12
0.03636,-17,-136,8334,50,-65,-51
0.036499,54,-106,8286,50,-103,-32
0.036638,31,-138,8354,6,-45,-1
0.036779,-9,-125,8328,75,-77,-1
0.036917,21,-148,8317,12,-52,-58
0.037056,22,-176,8276,25,-58,37
0.037197,1,-137,8289,69,-97,-39
0.03734,77,-116,8305,31,-58,-13
0.037474,26,-124,8310,38,-52,-32
0.037613,43,-124,8320,63,-103,-20
0.037754,20,-183,8339,19,-20,-13
0.037892,27,-150,8337,38,-128,5
0.038031,-6,-62,8367,63,-33,-64
0.03817,54,-75,8319,19,-77,12
0.03831,28,-104,8321,44,-33,-32
0.038449,17,-126,8298,56,-135,-26
0.038589,20,-124,8247,44,-33,-13
0.038728,11,-110,8348,56,-116,-51
0.038867,-29,-120,8305,12,-20,24
0.039006,9,-135,8294,44,-135,-58
0.039146,13,-171,8295,44,-39,-26
0.039285,32,-98,8252,50,-90,18
0.039424,-24,-129,8320,31,-71,-45
0.039564,36,-123,8338,63,-33,-32
0.039703,13,-75,8285,56,-116,-1
0.039842,63,-75,8340,12,-20,-39
0.039985,42,-128,8297,31,-84,-7
0.040121,-5,-142,8296,50,-39,-45
0.040261,58,-134,8317,50,-90,-1
0.0404,23,-138,8275,50,-46,-32
0.040539,50,-169,8334,12,-77,12
0.040678,3,-132,8345,69,-77,-64
0.040817,17,-79,8325,6,-52,5
0.040958,1,-136,8328,56,-84,-32
0.041096,-9,-93,8321,38,-84,-20
0.041235,-7,-131,8310,44,-65,-20
0.041374,0,-187,8277,56,-77,-26
0.041514,8,-100,8312,31,-52,-20
0.041653,33,-98,8333,38,-77,12
0.041792,46,-168,8290,44,-58,-39
0.041932,2,-194,8327,56,-90,-39
0.042071,-7,-153,8317,19,-71,18
0.042211,10,-138,8260,69,-77,-45
0.04235,18,-115,8248,31,-77,-13
0.042489,88,-76,8262,25,-84,-32
0.042629,59,-162,8297,82,-33,12
0.042767,-21,-128,8285,0,-77,-45
0.042907,31,-157,8347,69,-90,5
0.043046,24,-168,8365,50,-58,-32
0.043186,-6,-156,8285,38,-84,-51
0.043325,32,-121,8241,25,-14,37
0.043466,67,-98,8266,44,-116,-64
0.043603,-10,-108,8301,12,-52,31
0.043744,2,-150,8268,50,-71,-45
0.043882,42,-113,8324,63,-84,-26
0.044021,52,-127,8283,25,-39,-13
0.044161,55,-138,8289,38,-90,12
0.0443,7,-126,8302,44,-77,-70
0.044439,12,-176,8292,50,-58,-20
0.044579,68,-107,8265,31,-58,-1
0.044718,51,-96,8251,82,-97,-26
0.044857,14,-147,8299,0,-77,-20
0.044996,59,-105,8290,56,-58,-7
0.045137,52,-130,8267,31,-46,-45
0.045275,28,-113,8284,56,-90,-7
0.045415,35,-157,8279,0,-71,-1
0.045554,82,-119,8293,75,-71,-51
0.045694,19,-153,8270,31,-65,-20
0.045833,55,-104,8295,6,-71,-13
0.045972,2,-143,8253,50,-71,12
0.046111,9,-140,8329,38,-71,-45
0.046251,44,-91,8333,75,-65,-20
0.04639,33,-79,8281,25,-65,-26
0.046529,33,-85,8254,56,-84,-32
0.046668,58,-130,8268,12,-46,-7
0.046808,39,-139,8298,25,-97,-13
0.046947,32,-113,8286,69,-58,-20
0.047086,29,-81,8272,31,-97,-58
0.047226,56,-136,8302,69,-26,12
0.047367,4,-175,8318,31,-103,-20
0.047504,6,-164,8284,50,-52,-39
0.047644,26,-116,8299,25,-103,-26
0.047783,36,-121,8317,12,-1,-1
0.047924,18,-146,8347,63,-128,-45
0.048061,68,-155,8325,44,-33,-1
0.048201,49,-116,8315,38,-65,-32
0.048341,50,-112,8276,44,-65,-20
0.048479,6,-104,8283,44,-103,-13
0.048619,66,-110,8249,38,-14,-20
0.048758,63,-148,8239,63,-65,-45
0.048897,18,-115,8305,19,-97,-13
0.049037,2,-103,8330,44,-52,-26
0.049176,7,-72,8271,31,-71,-20
0.049315,9,-124,8281,38,-65,-20
0.049455,32,-145,8280,69,-77,12
0.049594,59,-145,8313,12,-84,-70
0.049733,15,-102,8240,63,-52,-1
0.049873,12,-92,8281,63,-84,12
0.050012,8,-112,8338,44,-65,-58
0.050151,-38,-110,8296,31,-65,-13
0.050292,17,-108,8304,56,-71,-32
0.050432,56,-139,8299,19,-65,-7
0.05057,48,-113,8294,69,-77,-26
0.050709,32,-123,8289,25,-58,-1
0.050849,42,-114,8339,44,-65,-20
0.050987,43,-119,8291,12,-71,-20
0.051126,58,-144,8310,82,-109,-51
0.051265,76,-86,8383,19,-26,31
0.051405,-32,-80,8310,63,-103,-32
0.051544,-1,-159,8323,25,-65,-45
0.051683,7,-147,8350,50,-58,5
0.051823,60,-97,8314,44,-77,-13
0.051962,46,-100,8303,38,-65,-51
0.052101,12,-130,8245,56,-109,-7
0.05224,66,-133,8276,44,-33,-13
0.05238,83,-97,8326,12,-77,-45
0.052521,39,-181,8289,56,-52,5
0.052659,40,-155,8330,56,-90,-64
0.052798,48,-127,8317,19,-52,18
0.052937,19,-156,8282,31,-65,-32
0.053078,49,-142,8310,56,-71,-32
0.053216,3,-98,8345,38,-71,-1
0.053355,9,-130,8342,12,-77,-32
0.053494,5,-171,8333,88,-52,-1
0.053634,12,-126,8267,31,-90,-45
0.053774,56,-164,8300,25,-58,12
0.053912,-4,-82,8390,25,-77,-51
0.054052,57,-108,8350,69,-97,-26
0.054191,61,-137,8316,25,-46,12
0.054331,-20,-118,8371,44,-58,-39
0.05447,-3,-129,8284,50,-84,-26
0.054609,25,-91,8274,19,-46,12
0.054748,13,-159,8328,75,-97,-58
0.054888,52,-97,8282,0,-65,12
0.055027,62,-91,8274,100,-97,-51
0.055167,26,-108,8345,25,-58,12
0.055306,-11,-135,8363,50,-77,-51
0.055445,47,-77,8315,25,-58,5
0.055584,53,-142,8300,44,-90,-26
0.055723,-16,-123,8318,50,-39,-39
0.055865,-9,-85,8288,38,-109,5
0.056002,47,-129,8269,31,-20,-58
0.056141,-3,-104,8292,44,-109,31
0.056282,10,-184,8267,75,-52,-64
0.05642,14,-154,8280,6,-77,-26
0.05656,21,-103,8298,69,-65,5
0.056699,51,-128,8363,0,-97,-26
0.056838,21,-123,8312,75,-58,-32
0.056977,34,-135,8300,38,-58,-32
0.057116,18,-121,8328,38,-52,18
0.057256,17,-85,8310,69,-109,-20
0.057395,23,-147,8313,25,-71,-64
0.057534,30,-107,8308,38,-33,18
0.057674,-6,-99,8256,38,-109,-58
0.057813,34,-126,8356,25,-65,12
0.057953,-20,-104,8318,69,-65,-45
0.058092,78,-68,8260,19,-84,-13
0.058231,33,-172,8297,44,-58,-39
0.05837,44,-144,8330,56,-46,12
0.05851,27,-96,8324,69,-122,-45
0.058649,3,-58,8299,19,-52,-1
0.058788,-17,-104,8294,50,-71,-26
0.058927,30,-118,8313,31,-65,-58
0.059067,-12,-149,8296,56,-97,18
0.059206,43,-173,8288,31,-58,-39
0.059346,21,-116,8334,19,-39,5
0.059485,-27,-93,8340,31,-84,-51
0.059624,87,-117,8322,94,-97,-20
0.059763,35,-85,8274,6,-52,-1
0.059903,48,-134,8256,50,-97,-39
0.060042,29,-114,8278,56,-65,-26
0.060181,1,-123,8302,6,-52,18
0.060322,18,-130,8315,75,-122,-64
0.06046,-8,-120,8338,19,-33,-7
0.060599,118,-83,8286,50,-90,-26
0.06074,4,-131,8301,44,-52,-7
0.060878,43,-121,8304,50,-77,-58
0.061017,5,-111,8288,44,-58,5
0.061156,-5,-120,8303,82,-103,-45
0.061296,85,-118,8307,0,-33,-26
0.061435,-29,-138,8351,69,-77,-26
0.061574,34,-132,8309,31,-58,-13
0.061714,4,-177,8309,56,-90,-7
0.061853,18,-108,8286,19,-97,-45
0.061992,-20,-94,8240,69,-39,-13
0.062132,56,-140,8310,19,-71,-13
0.062272,-11,-145,8336,56,-84,-26
0.062411,-10,-130,8274,31,-65,5
0.06255,21,-157,8312,19,-71,-45
0.062689,-9,-160,8290,82,-90,-13
0.062828,-10,-154,8323,6,-84,-20
0.062968,65,-98,8277,12,-46,-7
0.063107,0,-128,8341,75,-65,-20
0.063246,18,-184,8386,31,-97,-32
0.063385,11,-151,8302,12,-39,-39
0.063525,32,-127,8309,63,-65,-7
0.063664,-13,-147,8353,44,-116,-13
0.063805,24,-182,8244,-6,6,-45
0.063943,44,-144,8258,88,-122,-13
0.064082,71,-146,8287,12,-39,-13
0.064222,14,-84,8314,25,-77,-32
0.064361,23,-109,8299,44,-71,-32
0.0645,51,-96,8227,56,-71,-13
0.064639,20,-104,8232,50,-65,-7
0.064779,37,-174,8281,-6,-46,-26
0.064918,41,-191,8321,113,-135,-64
0.065057,1,-139,8297,-6,-39,24
0.065197,3,-156,8240,50,-39,-32
0.065338,36,-151,8260,69,-97,-1
0.065475,46,-91,8338,31,-46,-64
0.065614,33,-116,8329,56,-97,-1
0.065754,41,-118,8318,19,-65,-32
0.065893,23,-120,8300,82,-84,-32
0.066032,-44,-125,8310,-13,-33,18
0.066172,7,-94,8262,88,-135,-51
0.066311,33,-144,8296,19,-33,5
0.06645,42,-87,8289,31,-52,-45
0.066589,29,-144,8302,56,-77,-1
0.066729,10,-91,8299,38,-52,-13
0.066868,37,-55,8259,56,-90,-58
0.067008,-5,-150,8300,56,-97,-7
0.067147,-45,-142,8314,6,-33,-1
0.067286,-27,-133,8306,63,-97,-32
0.067428,-10,-140,8336,38,-26,-26
0.067565,34,-159,8269,63,-109,-20
0.067704,59,-162,8303,38,-52,-26
0.067844,62,-72,8288,44,-52,-20
0.067983,55,-104,8303,63,-84,-13
0.068122,-16,-120,8317,-13,-97,-26
0.068261,-15,-94,8317,69,-58,-26
0.068401,17,-92,8338,12,-65,-26
0.06854,45,-118,8297,88,-52,-7
0.068679,31,-90,8357,31,-103,-20
0.068819,72,-99,8362,31,-71,-39
0.068958,12,-168,8343,38,-46,-13
0.069097,-43,-128,8308,50,-71,5
0.069236,-36,-102,8337,25,-97,-13
0.069376,33,-174,8337,63,-65,-45
0.069515,-3,-155,8298,38,-77,12
0.069654,6,-95,8293,69,-84,-51
0.069794,56,-108,8295,12,-65,-7
0.069933,42,-88,8318,38,-58,5
0.070072,28,-121,8284,50,-71,-51
0.070212,69,-139,8298,63,-65,-20
0.070351,13,-151,8300,6,-84,18
0.07049,14,-150,8271,82,-84,-70
0.07063,74,-147,8299,6,-39,18
0.070769,9,-114,8304,75,-84,-32
0.070908,46,-140,8302,31,-84,-32
0.071047,51,-116,8314,38,-90,-13
0.071187,-5,-128,8317,6,-58,-20
0.071326,1,-134,8328,113,-97,-45
0.071465,22,-145,8303,6,-58,12
0.071604,40,-123,8315,44,-71,-39
0.071744,0,-142,8285,50,-58,5
0.071883,38,-111,8269,38,-77,-51
0.072023,36,-125,8281,31,-52,-13
0.072162,-19,-114,8306,50,-77,-20
0.072302,0,-153,8324,38,-65,-32
0.072442,29,-194,8316,44,-65,-26
0.07258,22,-161,8306,31,-58,-7
0.07272,-4,-150,8255,56,-90,-39
0.072859,25,-118,8357,50,-71,-1
0.072998,44,-104,8364,19,-71,-32
0.073137,3,-187,8295,100,-65,-26
0.073276,-2,-103,8295,19,-90,-7
0.073416,32,-116,8334,31,-58,-39
0.073556,36,-127,8315,56,-65,-13
0.073694,114,-129,8296,-13,-84,-13
0.073834,22,-126,8293,75,-65,-26
0.073974,3,-127,8297,50,-52,-20
0.074112,6,-126,8265,50,-77,-20
0.074252,26,-144,8311,-13,-71,-1
0.074391,42,-102,8319,75,-65,-70
0.07453,30,-124,8287,12,-71,31
0.074669,-26,-103,8306,75,-103,-64
0.074809,19,-76,8300,44,-7,18
0.074948,8,-127,8299,50,-135,-26
0.075088,26,-98,8317,12,-20,-26
0.075227,16,-104,8308,56,-116,-32
0.075366,-17,-124,8300,56,-58,-1
0.075505,-37,-118,8332,44,-58,-26
0.075645,98,-115,8339,38,-90,-32
0.075784,8,-63,8258,82,-58,-20
0.075923,10,-161,8285,12,-90,-32
0.076062,84,-149,8327,69,-20,5
0.076202,9,-129,8333,38,-116,-13
0.076341,27,-98,8266,31,-65,-58
0.076481,74,-105,8260,31,-45,-1
0.07662,-5,-154,8319,75,-103,-32
0.076759,29,-83,8334,19,-52,12
0.076898,52,-121,8346,38,-90,-64
0.077038,34,-94,8359,100,-77,-7
0.077177,25,-141,8355,-13,-65,-26
0.077317,65,-139,8282,63,-77,-39
0.077456,38,-122,8355,12,-65,-20
0.077595,2,-183,8327,44,-71,-1
0.077734,57,-152,8340,63,-103,-26
0.077879,56,-66,8294,31,-58,-32
0.078013,53,-71,8282,50,-58,12
0.078152,35,-104,8266,38,-77,-51
0.078292,41,-145,8290,50,-52,5
0.078431,11,-129,8305,44,-71,-20
0.07857,-9,-105,8289,56,-90,-26
0.07871,33,-147,8316,25,-71,-26
0.078849,-44,-111,8317,56,-77,-1
0.078988,22,-122,8353,56,-58,-45
0.079128,18,-159,8311,44,-77,-7
0.079267,15,-54,8322,44,-71,-32
0.079406,28,-90,8322,88,-71,-1
0.079545,19,-128,8335,12,-45,-1
0.079685,12,-89,8303,56,-84,-32
0.079824,39,-132,8329,38,-77,-26
0.079963,33,-177,8341,44,-45,-7
0.080103,10,-155,8303,56,-103,-26
0.080243,10,-144,8267,56,-33,-45
0.080382,36,-78,8313,31,-58,24
0.080521,55,-106,8370,56,-84,-58
0.08066,22,-83,8281,25,-84,-39
0.080799,72,-110,8310,38,-39,43
0.08094,-9,-118,8317,63,-90,-96
0.081078,-24,-148,8298,31,-52,43
0.081217,17,-115,8254,63,-135,-26
0.081356,35,-122,8275,44,-26,-58
0.081495,27,-130,8317,19,-97,18
0.081635,52,-97,8302,75,-52,-32
0.081774,22,-99,8303,6,-77,5
0.081913,74,-86,8294,82,-77,-20
0.082053,24,-64,8307,50,-58,-64
0.082192,68,-115,8301,0,-71,12
0.082333,-3,-100,8313,75,-90,-26
0.082471,67,-123,8244,19,-52,-1
0.08261,46,-111,8265,56,-65,-32
0.082749,17,-132,8314,107,-103,-20
0.082891,54,-94,8285,-63,-20,18
0.083028,7,-140,8330,119,-90,-32
0.083167,20,-87,8329,50,-58,-32
0.083307,21,-172,8312,12,-58,24
0.083446,17,-162,8294,69,-97,-64
0.083585,32,-111,8288,44,-65,12
0.083725,-9,-113,8305,38,-39,-39
0.083864,11,-119,8322,63,-84,-20
0.084003,3,-115,8305,12,-65,-7
0.084142,4,-114,8286,44,-84,-39
0.084282,26,-101,8311,50,-33,12
0.084421,13,-130,8315,50,-109,-39
0.08456,-7,-92,8326,44,-65,-20
0.0847,54,-142,8299,50,-52,-26
0.084839,1,-98,8273,50,-77,5
0.084978,-10,-109,8301,38,-84,-58
0.085118,45,-160,8267,38,-71,-13
0.085257,6,-138,8328,19,-77,5
0.085396,31,-131,8317,88,-77,-45
0.085536,37,-150,8268,31,-20,5
0.085675,-34,-167,8265,56,-103,-58
0.085814,16,-124,8277,50,-58,5
0.085953,46,-147,8253,44,-77,-26
0.086093,-18,-120,8303,38,-90,-20
0.086232,2,-185,8299,50,-84,-39
0.086372,50,-152,8298,25,-45,31
0.086511,-11,-151,8303,94,-71,-64
0.08665,-6,-143,8269,38,-77,5
0.086789,34,-104,8231,6,-90,-45
0.086929,27,-109,8271,107,-33,12
0.087068,49,-127,8335,-6,-90,-39
0.087207,67,-141,8338,75,-90,-32
0.087347,39,-156,8317,19,-77,-32
0.087486,1,-138,8292,63,-39,5
0.087625,-7,-125,8307,38,-90,-39
0.087765,18,-113,8328,50,-33,5
0.087904,13,-168,8308,69,-97,-20
0.088043,19,-135,8286,25,-45,-13
0.088182,27,-162,8256,38,-122,-13
0.088322,36,-175,8317,94,-58,-26
0.088461,12,-124,8308,6,-65,-32
0.0886,58,-149,8314,44,-84,-26
0.08874,-16,-181,8313,56,-65,-26
0.088879,-23,-105,8316,25,-58,-32
0.089018,-18,-63,8273,38,-65,12
0.089158,-36,-111,8338,69,-122,-39
0.089297,71,-174,8304,6,-39,-20
0.089436,27,-98,8322,69,-65,-13
0.089576,8,-102,8311,50,-109,-45
0.089715,-15,-102,8327,19,-45,-20
0.089854,21,-122,8323,50,-84,-26
0.089993,33,-147,8301,25,-39,-1
0.090133,8,-93,8321,69,-52,-39
0.090272,16,-122,8272,50,-109,-20
0.090411,28,-141,8329,-13,-33,5
0.090551,-1,-128,8349,82,-109,-51
0.09069,38,-105,8367,44,-65,-32
0.090829,1,-139,8321,25,-65,-1
0.090969,32,-128,8301,50,-65,-32
0.091109,42,-125,8299,44,-52,-26
0.091247,72,-154,8293,56,-84,-1
0.091387,50,-95,8319,19,-90,-39
0.091526,-35,-151,8296,69,-52,-39
0.091665,12,-118,8283,25,-71,5
0.091804,72,-117,8334,69,-71,-51
0.091944,35,-136,8342,-6,-33,-13
0.092083,0,-137,8315,69,-103,-39
0.092222,69,-128,8324,25,-77,-13
0.092362,42,-140,8348,56,-71,-20
0.092501,-22,-149,8340,56,-77,5
0.09264,-2,-149,8282,19,-71,-45
0.09278,35,-118,8304,88,-77,-32
0.092919,50,-113,8289,0,-45,-1
0.093058,6,-126,8364,0,-84,-26
0.093198,54,-102,8312,100,-71,-7
0.093338,67,-120,8304,6,-77,-26
0.093476,-14,-132,8293,44,-45,-32
0.093615,-8,-133,8258,31,-84,-13
0.093755,53,-106,8314,69,-58,-7
0.093894,57,-147,8296,69,-97,-77
0.094033,77,-152,8323,-25,-26,37
0.094173,40,-152,8384,82,-103,-45
0.094312,24,-123,8374,44,-45,-45
0.094451,51,-62,8282,44,-58,-20
0.094591,28,-119,8283,31,-39,-1
0.09473,14,-71,8358,31,-90,-26
0.094868,15,-140,8300,44,-58,-20
0.095009,31,-66,8293,50,-109,-45
0.095148,58,-140,8280,25,-7,31
0.095287,13,-108,8313,44,-97,-32
0.095427,51,-98,8272,50,-52,-39
0.095566,-6,-92,8294,50,-90,-1
0.095705,-14,-108,8302,31,-45,-26
0.095845,17,-170,8309,44,-97,-13
0.095984,13,-124,8252,38,-77,-20
0.096123,-22,-111,8355,88,-52,-20
0.096262,50,-127,8322,12,-71,31
0.096402,31,-141,8310,69,-84,-70
0.096541,29,-103,8281,38,-65,-32
0.09668,25,-59,8316,25,-71,12
0.09682,39,-109,8313,50,-33,-45
0.096959,73,-90,8344,25,-71,12
0.097098,66,-120,8331,69,-84,-51
0.097238,40,-55,8286,50,-84,-7
0.097377,38,-92,8314,31,-45,-7
0.097516,30,-192,8343,44,-109,-58
0.097655,-14,-141,8295,38,-45,5
0.097795,9,-67,8307,44,-77,-13
0.097934,51,-79,8332,31,-97,-58
0.098073,37,-159,8325,69,-52,-20
0.098213,22,-82,8302,44,-71,12
0.098352,49,-126,8288,31,-84,-64
0.098491,40,-92,8262,38,-84,-7
0.098631,52,-86,8297,44,-71,-13
0.09877,6,-137,8257,56,-97,-20
0.098909,36,-137,8316,6,-33,-32
0.099049,44,-188,8318,69,-109,5
0.099188,10,-139,8276,50,-71,-58
0.099327,47,-148,8301,63,-58,-20
0.099466,41,-142,8239,25,-58,18
0.099605,43,-153,8317,25,-45,-26
0.099745,4,-112,8361,69,-97,-51
0.099884,36,-131,8343,31,-77,18
0.100024,81,-117,8304,25,-71,-58
0.100163,27,-104,8308,69,-65,12
0.100302,46,-184,8277,38,-71,-26
0.100442,-25,-193,8325,82,-84,-39
0.100582,-18,-123,8286,44,-65,-13
0.10072,36,-100,8283,6,-65,-13
0.10086,-24,-121,8299,63,-45,-32
0.100999,-7,-154,8265,69,-135,-13
0.101138,39,-78,8293,-13,-20,-13
0.101278,16,-75,8308,69,-71,-20
0.101418,56,-120,8271,25,-90,-51
0.101558,20,-147,8292,38,-58,-1
0.101695,66,-173,8253,75,-71,5
0.101837,46,-120,8279,38,-58,-32
0.101976,-18,-80,8306,19,-52,-26
0.102113,17,-153,8332,100,-84,-13
0.102253,18,-135,8334,19,-77,-32
0.102392,17,-155,8307,19,-71,-7
0.102531,19,-139,8322,50,-58,-39
0.102672,21,-142,8326,82,-65,-20
0.10281,-12,-96,8241,25,-90,-26
0.102949,46,-117,8283,50,-65,12
0.103089,32,-101,8335,31,12,-45
0.103228,38,-106,8328,50,-109,-13
0.103367,22,-162,8269,63,-84,-26
0.103508,-3,-85,8326,19,-45,-26
0.103646,-41,-133,8295,12,-58,-26
0.103787,32,-120,8293,63,-84,-13
0.103924,46,-104,8316,50,-45,-1
0.104065,33,-101,8363,0,-71,-26
0.104203,52,-91,8298,69,-65,12
0.104346,35,-187,8282,75,-109,-51
0.104482,-20,-128,8289,19,-26,-1
0.104622,39,-148,8346,50,-103,-51
0.10476,-13,-119,8263,31,-52,31
0.1049,-7,-146,8344,38,-84,-20
0.10504,30,-117,8317,50,-65,-51
0.105178,37,-132,8272,50,-58,-7
0.105323,12,-104,8308,69,-109,-51
0.105457,-38,-108,8350,0,-45,12
0.105597,6,-98,8251,56,-39,-32
0.105735,45,-138,8292,38,-90,-20
0.105875,31,-118,8338,63,-65,-7
0.106014,-5,-171,8320,50,-77,-45
0.106153,29,-93,8303,25,-65,-1
0.106292,57,-142,8295,50,-58,-39
0.106432,31,-82,8321,25,-84,-7
0.106571,37,-81,8334,75,-77,-26
0.10671,36,-168,8351,6,-77,-7
0.10685,37,-113,8283,69,-58,-39
0.106989,39,-117,8270,12,-58,-20
0.107128,24,-119,8315,88,-90,-26
0.107268,38,-98,8314,12,-65,-1
0.107407,-4,-136,8300,69,-77,-51
0.107546,-3,-123,8329,19,-77,-1
0.107687,41,-104,8369,38,-52,-1
0.107826,19,-111,8310,94,-90,-39
0.107964,45,-124,8305,44,-71,-39
0.108104,32,-125,8371,-6,-65,-20
0.108243,41,-137,8302,56,-20,31
0.108382,36,-113,8306,44,-122,-64
0.108522,52,-157,8307,75,-90,-13
0.108662,62,-69,8300,31,-45,18
0.108801,67,-122,8291,44,-84,-70
0.108939,20,-134,8298,31,-33,-1
0.109079,94,-113,8338,63,-154,-39
0.109218,11,-138,8280,6,-14,-1
0.109358,46,-86,8230,25,-58,-1
0.109497,10,-109,8300,75,-84,-45
0.109636,80,-160,8312,31,-71,-45
0.109775,10,-142,8339,56,-77,-26
0.109915,7,-125,8304,-6,-46,12
0.110054,57,-169,8319,69,-58,-51
0.110193,-16,-135,8291,19,-103,-20
0.110333,26,-117,8329,82,-52,5
0.110474,51,-142,8313,19,-65,-20
0.110611,-13,-170,8319,25,-65,-39
0.110751,-4,-127,8294,69,-65,-20
0.11089,35,-145,8304,31,-52,-20
0.111029,1,-161,8293,50,-77,-1
0.111169,0,-158,8312,75,-46,-51
0.111308,34,-108,8297,6,-103,-20
0.111447,14,-130,8332,82,-52,-13
0.111587,-3,-160,8306,0,-65,-7
0.111727,22,-107,8296,75,-52,-39
0.111865,6,-131,8306,19,-65,-26
0.112004,32,-115,8291,50,-65,-26
0.112144,36,-149,8294,31,-90,-1
0.112283,1,-148,8293,88,-84,-58
0.112424,54,-122,8286,-6,-1,31
0.112562,64,-108,8278,63,-128,-51
0.112701,11,-80,8235,63,-77,-39
0.112841,-14,-114,8316,-19,-39,-7
0.11298,17,-129,8251,100,-84,-20
0.113119,35,-139,8284,19,-26,-7
0.113258,70,-119,8301,56,-90,-26
0.113399,15,-62,8246,0,-90,-7
0.113537,53,-76,8313,63,-26,-58
0.113676,24,-130,8238,31,-52,-7
0.113815,52,-111,8251,44,-103,-26
0.113955,76,-97,8280,31,-71,5
0.114094,22,-148,8277,44,-84,-51
0.114233,26,-167,8279,31,-33,12
0.114372,15,-161,8306,44,-109,-45
0.114512,44,-131,8315,38,-20,18
0.114651,10,-118,8304,25,-77,-58
0.11479,40,-120,8313,63,-90,12
0.11493,43,-123,8284,25,-33,-39
0.115069,2,-141,8244,38,-97,-7
0.11521,12,-118,8281,44,-103,-45
0.115348,11,-116,8247,38,-26,12
0.115487,16,-142,8269,38,-84,-58
0.115628,16,-151,8289,56,-39,5
0.115766,25,-136,8264,19,-84,-32
0.115905,27,-123,8281,31,-71,-1
0.116047,55,-112,8325,44,-71,-32
0.116184,39,-90,8297,56,-84,-26
0.116323,5,-117,8290,25,-46,-20
0.116462,14,-142,8332,56,-103,-45
0.116602,11,-74,8266,12,-58,-1
0.116742,82,-45,8314,63,-52,-26
0.11688,43,-126,8283,25,-103,-26
0.117022,1,-142,8295,38,-20,-13
0.117159,7,-91,8313,63,-77,-32
0.117298,55,-97,8283,25,-65,-20
0.117438,8,-102,8271,44,-46,5
0.117577,8,-94,8334,75,-109,-45
0.117716,-2,-21,8284,12,-46,5
0.117855,29,-137,8351,50,-103,-45
0.117995,0,-110,8331,38,-46,-7
0.118134,38,-92,8306,56,-58,-20
0.118273,26,-129,8291,63,-65,-20
0.118413,33,-105,8321,12,-77,-26
0.118552,-7,-137,8368,75,-77,-26
0.118691,6,-156,8358,63,-71,-7
0.118831,0,-88,8322,-13,-65,-26
0.11897,16,-121,8261,82,-90,-13
0.119109,12,-103,8257,75,-71,-51
0.119249,33,-92,8313,6,-65,12
0.119388,43,-154,8277,12,-58,-13
0.119527,64,-172,8332,94,-103,-45
0.119667,-4,-86,8325,6,-58,-7
0.119806,32,-132,8286,56,-65,-39
0.119945,7,-164,8338,63,-84,-13
0.120084,42,-116,8356,6,-39,-26
0.120224,70,-156,8299,44,-84,18
0.120363,15,-106,8313,75,-90,-77
0.120502,62,-79,8281,-6,-65,31
0.120642,60,-58,8333,69,-33,-45
0.120781,5,-128,8337,69,-97,-26
0.12092,36,-122,8394,19,-65,-7
0.12106,53,-132,8389,44,-103,-51
0.121199,23,-148,8282,31,-33,-7
0.121338,35,-126,8292,31,-103,-26
0.121478,15,-111,8264,69,-52,-26
0.121617,6,-87,8294,50,-90,-39
0.121756,16,-78,8303,56,-39,-20
0.121895,11,-156,8330,25,-90,-7
0.122035,18,-75,8316,63,-77,-45
0.122174,8,-86,8322,25,-71,-45
0.122313,29,-161,8309,44,-90,12
0.122453,39,-98,8311,82,-58,-20
0.122592,-15,-119,8306,12,-58,-26
0.122731,-53,-112,8335,44,-103,-32
0.122871,-7,-123,8315,38,-77,-7
0.12301,62,-102,8333,31,-52,18
0.123149,63,-150,8346,56,-65,-58
0.123288,50,-137,8287,63,-71,-20
0.123428,66,-75,8285,19,-109,-45
0.123567,22,-155,8300,38,-33,24
0.123707,-29,-121,8348,50,-90,-32
0.123847,46,-169,8330,25,-46,-64
0.123985,31,-149,8267,69,-90,37
0.124124,69,-144,8287,-13,-46,-39
0.124264,25,-163,8327,107,-77,-58
0.124403,17,-174,8341,12,-39,31
0.124542,26,-56,8304,38,-116,-26
0.124681,5,-98,8328,75,-58,-32
0.124821,9,-123,8405,0,-71,-1
0.12496,24,-107,8331,75,-77,-32
0.125099,31,-91,8353,63,-46,-13
0.125239,3,-67,8266,50,-97,-20
0.125379,46,-109,8298,0,-46,-39
0.125517,30,-139,8301,38,-71,24
0.125658,37,-100,8332,63,-52,-26
0.125796,7,-127,8314,75,-90,-64
0.125937,31,-113,8296,-13,-58,24
0.126075,-20,-185,8307,69,-103,-89
0.126214,69,-90,8314,25,-33,37
0.126353,78,-112,8351,63,-122,-58
0.126492,68,-92,8253,0,-14,-1
0.126633,27,-117,8306,88,-116,-32
0.126771,54,-119,8349,-19,-52,-32
0.126911,21,-143,8293,75,-33,12
0.12705,18,-202,8293,44,-84,-26
0.127189,-17,-130,8255,44,-84,-39
0.127328,62,-146,8314,50,-90,-51
0.127468,56,-102,8298,19,-14,56
0.127607,72,-166,8278,25,-84,-70
0.127747,15,-99,8274,38,-77,-39
0.127886,44,-96,8309,44,-52,5
0.128025,41,-103,8357,38,-103,-45
0.128166,-16,-103,8276,31,-58,-1
0.128304,78,-126,8293,56,-90,-26
0.128443,15,-128,8344,38,-77,-26
0.128584,-23,-98,8334,69,-77,-13
0.128722,9,-171,8292,12,-65,-20
0.128861,62,-133,8282,88,-65,-39
0.129005,47,-133,8278,6,-45,-1
0.129141,-20,-110,8330,63,-58,-20
0.129279,54,-94,8307,50,-97,-51
0.129418,6,-183,8282,19,-39,-26
0.129557,2,-165,8279,75,-90,-1
0.129697,8,-152,8276,19,-45,-7
0.129836,54,-90,8300,50,-103,-64
0.129975,-14,-113,8296,38,-45,37
0.130115,38,-108,8307,-19,-39,-26
0.130254,13,-104,8339,94,-116,-45
0.130393,34,-130,8331,56,-77,-13
0.130533,60,-129,8322,6,-58,-7
0.130672,32,-135,8280,31,-65,-39
0.130811,-7,-103,8322,69,-71,-20
0.130951,25,-107,8341,44,-97,-20
0.13109,50,-104,8267,31,-52,-26
0.131229,-20,-153,8325,56,-65,-13
0.131368,29,-59,8280,38,-65,-20
0.131508,68,-151,8268,56,-90,-51
0.131647,45,-119,8287,19,-90,12
0.13179,25,-98,8245,25,-33,-13
0.131926,47,-118,8266,75,-109,-51
0.132065,18,-163,8312,0,-58,-7
0.132204,29,-142,8289,75,-65,-7
0.132344,22,-128,8340,25,-84,-7
0.132483,21,-100,8262,25,-77,-77
0.132622,31,-86,8264,94,-90,5
0.132762,48,-92,8295,31,-20,-1
0.132901,85,-106,8248,38,-122,-26
0.13304,11,-96,8302,75,-71,-26
0.133179,59,-106,8308,19,-52,5
0.133318,18,-110,8318,44,-71,-20
0.133459,24,-125,8318,44,-97,-32
0.133597,-15,-118,8263,56,-65,-26
0.133736,37,-101,8365,50,-39,-13
0.133876,23,-120,8339,31,-71,-1
0.134015,74,-120,8268,69,-97,-51
0.134155,41,-106,8241,25,-52,12
0.134294,-14,-112,8300,50,-103,-58
0.134433,24,-136,8266,31,-26,5
0.134572,-49,-107,8309,56,-128,-20
0.134712,32,-95,8289,44,-52,-39
0.134851,14,-161,8314,44,-97,-7
0.13499,48,-91,8291,19,-45,-20
0.13513,11,-104,8309,75,-84,-20
0.135269,-20,-55,8272,-13,-58,-13
0.135409,78,-108,8314,100,-90,-32
0.135548,14,-104,8331,0,-45,-13
0.135688,53,-40,8237,94,-90,-26
0.135828,-2,-168,8313,44,-77,-1
0.135966,-41,-130,8308,12,-45,-45
0.136105,-6,-137,8250,82,-109,-45
0.136244,18,-155,8313,12,-39,12
0.136383,58,-98,8321,38,-84,-39
0.136523,27,-114,8332,69,-33,5
0.136663,46,-142,8342,6,-84,-45
0.136801,61,-102,8356,25,-33,-1
0.136942,13,-124,8287,75,-97,-39
0.13708,49,-127,8335,56,-45,5
0.137219,58,-174,8320,-13,-97,-64
0.137359,42,-140,8326,88,-45,24
0.137497,-10,-95,8257,31,-77,-45
0.137637,29,-113,8288,31,-90,-20
0.137777,-2,-129,8309,19,-39,-20
0.137916,-15,-142,8302,107,-109,-45
0.138055,6,-135,8269,6,-33,31
0.138197,-31,-161,8312,63,-84,-58
0.138333,63,-113,8287,44,-39,-32
0.138473,95,-139,8339,19,-52,12
0.138612,93,-94,8290,63,-103,-51
0.138752,26,-153,8305,38,-65,18
0.138893,60,-132,8330,50,-77,-45
0.13903,37,-96,8319,31,-77,-32
0.13917,30,-140,8372,31,-52,-1
0.13931,58,-135,8352,75,-77,-39
0.139449,46,-152,8306,25,-65,-7
0.139588,22,-150,8277,19,-52,-26
0.139727,-15,-155,8290,75,-103,-32
0.139866,14,-105,8352,19,-58,12
0.140006,-42,-115,8334,56,-103,-51
0.140145,-24,-116,8297,50,-52,-26
0.140284,-23,-99,8287,25,-77,12
0.140424,-41,-90,8314,63,-84,-45
0.140563,30,-156,8312,-6,-58,-20
0.140702,23,-162,8308,94,-45,-1
0.140841,-6,-94,8254,25,-103,-51
0.140981,-1,-153,8254,56,-52,31
0.14112,18,-145,8311,44,-116,-83
0.141261,47,-129,8312,38,-39,31
0.141399,27,-145,8333,25,-90,-32
0.141538,23,-106,8305,56,-39,-20
0.141677,-4,-157,8320,88,-135,-58
0.141817,48,-149,8284,0,-26,-7
0.141956,45,-80,8334,63,-77,12
0.142095,-1,-115,8328,12,-65,-26
0.142236,9,-197,8255,75,-90,-51
0.142374,-56,-114,8285,44,-52,-20
0.142513,43,-152,8288,38,-58,18
0.142653,12,-172,8349,38,-90,-51
0.142792,13,-103,8332,50,-45,-26
0.142931,40,-149,8267,31,-97,-7
0.143071,23,-126,8349,56,-33,-39
0.14321,29,-154,8374,50,-97,-7
0.143349,14,-164,8263,19,-45,-26
0.143488,12,-156,8337,50,-84,-13
0.14363,5,-167,8319,69,-45,-26
0.143767,31,-140,8260,-19,-84,-1
0.143906,17,-84,8319,75,-45,-13
0.144045,12,-94,8262,12,-103,-51
0.144185,55,-151,8339,69,-58,12
0.144324,70,-140,8288,25,-65,-32
0.144463,11,-166,8317,75,-65,-45
0.144603,26,-149,8299,0,-77,12
0.144742,38,-110,8284,75,-58,-45
0.144881,39,-89,8292,31,-90,-13
0.145021,40,-120,8328,25,-71,-1
0.14516,10,-161,8342,63,-45,-26
0.1453,39,-127,8304,50,-65,-51
0.145439,41,-143,8295,25,-97,31
0.145579,27,-171,8322,56,-84,-39
0.145717,27,-100,8304,44,-52,-39
0.145857,6,-135,8294,38,-39,-7
0.145996,93,-149,8341,-6,-84,-20
0.146135,26,-140,8305,119,-103,-39
0.146274,13,-90,8276,-6,-39,-13
0.146414,52,-113,8284,44,-52,-26
0.146553,43,-145,8311,75,-122,-64
0.146693,2,-165,8272,25,-14,24
0.146832,22,-123,8267,6,-58,-39
0.146971,7,-128,8291,63,-84,-26
0.14711,29,-171,8306,75,-71,-7
0.147251,74,-171,8299,-25,-33,-26
0.147389,61,-143,8305,94,-90,-20
0.147528,56,-137,8322,25,-77,-39
0.147668,45,-72,8275,19,-45,24
0.147807,-2,-112,8324,75,-77,-58
0.147946,41,-131,8304,44,-90,-32
0.148086,40,-98,8327,31,-20,12
0.148226,22,-148,8313,31,-84,-26
0.148364,-12,-122,8346,25,-52,-32
0.148504,8,-105,8283,38,-71,5
0.148643,23,-118,8293,94,-97,-58
0.148782,16,-131,8266,12,-45,-1
0.148921,58,-185,8325,38,-52,-32
0.14906,105,-109,8275,44,-77,-32
0.149202,42,-145,8296,69,-71,12
0.14934,-13,-99,8312,6,-58,-45
0.149479,-12,-119,8286,50,-90,-39
0.149618,-32,-113,8302,19,-33,37
0.149757,-20,-159,8293,69,-122,-89
0.149897,-18,-158,8262,38,-52,12
0.150036,-3,-130,8319,31,-65,-32
0.150175,52,-131,8303,38,-58,-26
0.150314,19,-123,8305,88,-90,18
0.150454,89,-98,8310,-13,-65,-39
0.150593,59,-93,8324,88,-97,-26
0.150732,65,-156,8328,50,-58,-32
0.150872,26,-87,8254,12,-71,-7
0.151011,34,-162,8298,44,-39,5
0.15115,13,-132,8298,56,-109,-64
0.15129,-15,-136,8331,44,-58,-13
0.151429,-2,-176,8238,50,-90,-32
0.151568,35,-175,8269,12,-71,-1
0.151708,69,-139,8268,50,-65,-13
0.151847,-3,-73,8277,12,-33,-26
0.151986,12,-169,8286,94,-116,-20
0.152126,-3,-154,8269,6,-33,-20
0.152265,-18,-163,8257,50,-90,-7
0.152404,3,-89,8273,50,-84,-45
0.152543,45,-86,8267,38,-45,-39
0.152683,-27,-185,8348,50,-65,-1
0.152822,-18,-148,8277,44,-77,-20
0.152961,-3,-127,8273,69,-90,-13
0.153101,18,-123,8262,6,-58,-45
0.153241,20,-121,8229,88,-84,-1
0.15338,37,-121,8309,-13,-39,-32
0.153518,3,-148,8305,56,-84,-13
0.153658,34,-103,8244,56,-90,-39
0.153797,40,-122,8304,50,-33,-1
0.153937,16,-88,8260,31,-84,-26
0.154076,86,-113,8279,50,-77,-45
0.154215,20,-150,8298,12,-84,5
0.154354,-10,-110,8263,63,-45,-39
0.154494,32,-99,8281,44,-90,-32
0.154633,22,-108,8264,50,-58,-1
0.154772,-25,-156,8326,31,-65,-1
0.154911,34,-179,8284,100,-128,-70
0.155051,19,-132,8264,-19,-33,5
0.15519,25,-87,8295,69,-71,-51
0.155331,67,-128,8307,25,-84,-7
0.15547,45,-119,8296,56,-58,-13
0.15561,15,-105,8304,31,-97,-39
0.155747,-15,-123,8277,63,-39,-1
0.155888,0,-134,8339,25,-84,-45
0.156026,3,-126,8342,44,-84,-32
0.156165,51,-146,8309,38,-39,5
0.156305,31,-147,8355,19,-58,-26
0.156445,9,-118,8304,82,-90,-26
0.156583,-33,-93,8308,50,-77,-13
0.156725,10,-141,8347,-13,-39,-39
0.156867,62,-128,8296,119,-109,-13
0.157002,47,-125,8273,-6,-65,-13
0.157141,-8,-89,8347,69,-52,-39
0.15728,-4,-130,8304,0,-71,24
0.157421,14,-57,8266,82,-97,-51
0.157559,-14,-107,8304,63,-84,-51
0.157698,-1,-141,8306,-6,-33,24
0.157837,-9,-104,8313,75,-90,-13
0.157977,61,-117,8306,75,-77,-26
0.158116,-22,-137,8281,25,-65,24
0.158255,-2,-131,8301,50,-71,-77
0.158394,1,-127,8312,12,-77,31
0.158534,16,-145,8322,75,-84,-51
0.158673,52,-153,8312,-13,-45,12
0.158812,49,-137,8318,88,-84,-51
0.158952,59,-184,8273,25,-45,12
0.159091,22,-146,8295,44,-58,-32
0.15923,48,-98,8315,56,-116,-32
0.15937,30,-126,8338,19,-45,-7
0.159509,15,-118,8330,31,-45,-26
0.159648,0,-129,8330,82,-65,-32
0.159788,11,-113,8344,50,-116,-26
0.159927,32,-104,8284,38,-26,5
0.160066,27,-116,8334,38,-65,-58
0.160205,-14,-87,8371,50,-65,18
0.160345,42,-54,8306,38,-97,-26
0.160484,29,-147,8272,50,-71,-26
0.160623,82,-182,8302,63,-71,-32
0.160763,-9,-115,8347,12,-71,-26
0.160902,-12,-143,8394,88,-58,-13
0.161041,-7,-113,8320,25,-77,-26
0.161181,22,-120,8301,31,-71,5
0.16132,42,-130,8345,69,-84,-58
0.161459,37,-77,8366,56,-39,12
0.161599,-14,-92,8372,25,-77,-20
0.161738,78,-95,8333,75,-97,-39
0.161877,6,-130,8328,25,-52,-1
0.162017,-2,-100,8310,50,-103,-58
0.162156,30,-119,8323,31,-33,18
0.162295,68,-107,8267,38,-84,-70
0.162434,0,-81,8331,38,-65,37
0.162574,8,-66,8286,63,-90,-32
0.162713,41,-145,8297,25,-45,-39
0.162852,6,-164,8347,38,-65,-1
0.162992,28,-104,8317,56,-97,-20
0.163131,19,-123,8341,50,-52,-51
0.163271,8,-177,8312,6,-58,31
0.163412,47,-75,8269,88,-97,-77
0.163549,82,-129,8361,6,-39,12
0.163688,13,-150,8335,56,-77,-58
0.163828,-37,-113,8323,50,-77,-20
0.163967,-21,-146,8321,31,-71,-13
0.164106,31,-120,8339,31,-52,-1
0.164245,20,-93,8338,44,-77,-45
0.164384,34,-108,8278,25,-45,-13
0.164524,45,-113,8288,88,-109,-39
0.164663,58,-151,8308,31,-45,12
0.164802,21,-113,8334,12,-71,-58
0.164947,27,-94,8316,75,-84,-1
0.165081,-4,-118,8342,38,-90,-1
0.165221,16,-89,8296,25,-7,-32
0.16536,34,-153,8304,56,-148,-32
0.1655,26,-119,8276,31,-1,-26
0.165639,9,-86,8321,38,-84,24
0.165778,61,-92,8309,19,-71,-32
0.165917,-10,-116,8303,50,-97,-39
0.166058,30,-110,8289,25,-20,-7
0.166196,52,-167,8276,88,-109,-45
0.16634,37,-154,8285,56,-58,-26
0.166474,26,-154,8282,0,-45,5
0.166614,39,-113,8308,50,-77,-58
0.166754,52,-107,8280,69,-65,-7
0.166892,-33,-116,8269,-13,-77,-32
0.167031,32,-88,8295,69,-33,18
0.167171,48,-119,8296,56,-84,-45
0.167312,31,-159,8319,63,-71,-39
0.16745,40,-151,8258,12,-84,12
0.167589,43,-159,8265,38,-14,-26
0.167728,6,-145,8323,50,-135,-39
0.167867,-17,-135,8286,38,-7,-13
0.168007,42,-91,8264,38,-84,-20
0.168146,5,-149,8289,44,-65,-7
0.168286,22,-138,8308,12,-52,-39
0.168425,38,-169,8245,50,-97,-7
0.168564,40,-162,8259,63,-20,-20
0.168706,11,-122,8373,44,-128,-39
0.168843,46,-129,8353,82,-26,-13
0.168982,20,-114,8290,0,-109,-26
0.169121,1,-128,8277,56,-45,5
0.169261,-5,-143,8285,50,-84,-26
0.1694,40,-115,8298,38,-84,-32
0.169539,45,-167,8275,56,-52,-26
0.169679,14,-105,8232,25,-65,-1
0.169818,60,-92,8263,44,-84,-20
0.169957,62,-118,8334,75,-77,-20
0.170096,67,-80,8266,25,-65,-26
0.170236,-1,-93,8275,19,-52,-7
0.170375,29,-113,8292,38,-77,-26
0.170514,54,-112,8289,82,-52,-32
0.170653,-25,-184,8355,25,-84,-13
0.170793,-18,-105,8319,44,-90,-20
0.170932,51,-154,8352,38,-45,-58
0.171072,58,-162,8301,44,-90,24
0.171211,30,-115,8263,38,-65,-58
0.17135,21,-100,8327,31,-65,-1
0.17149,50,-113,8355,50,-71,-20
0.171629,56,-127,8336,50,-84,-39
0.171768,-5,-89,8337,31,-84,5
0.171908,-10,-132,8263,63,-58,-39
0.172047,3,-115,8285,56,-84,-26
0.172186,26,-174,8338,19,-52,18
0.172325,19,-107,8355,50,-97,-51
0.172465,47,-150,8290,63,-84,-39
0.172604,61,-132,8265,-13,-45,12
0.172743,24,-203,8371,82,-77,-45
0.172883,-7,-104,8306,69,-77,-13
0.173022,38,-136,8292,-6,-52,-20
0.173161,-11,-167,8296,56,-77,-26
0.173301,5,-129,8350,63,-71,-20
0.17344,28,-102,8303,56,-84,-20
0.173579,28,-76,8334,19,-26,-26
0.173718,34,-94,8316,94,-128,-32
0.173858,-17,-118,8286,-13,-45,-1
0.173997,-18,-131,8244,69,-71,-58
0.174137,33,-145,8266,44,-77,37
0.174275,8,-181,8358,31,-58,-58
0.174415,1,-162,8347,63,-77,5
0.174554,5,-114,8290,31,-71,-20
0.174693,3,-98,8301,75,-71,-39
0.174833,26,-126,8256,6,-52,-26
0.174972,15,-68,8344,44,-84,-13
0.175111,26,-82,8290,50,-77,-13
0.175252,30,-130,8303,69,-45,-26
0.17539,42,-107,8318,-6,-71,-45
0.175531,50,-90,8318,50,-77,43
0.175669,27,-116,8322,69,-97,-102
0.175808,37,-132,8312,25,-71,24
0.175954,15,-166,8308,0,-39,-32
0.176087,18,-115,8253,69,-122,-45
0.176226,0,-106,8313,25,-20,-1
0.176365,30,-88,8329,31,-103,-26
0.176505,31,-112,8283,19,-33,-1
0.176644,-9,-151,8287,75,-141,-51
0.176783,15,-158,8315,94,-52,-1
0.176922,-3,-168,8307,-13,-84,-58
0.177062,27,-166,8331,38,-58,5
0.177201,33,-149,8270,63,-58,-32
0.17734,49,-159,8279,44,-84,-20
0.17748,37,-89,8317,19,-33,-32
0.177619,4,-80,8360,56,-116,-26
0.177758,3,-158,8368,38,6,-1
0.177898,30,-124,8336,-6,-135,-39
0.178037,54,-88,8310,82,-71,-26
0.178176,41,-77,8308,0,-65,-7
0.178316,57,-123,8324,94,-65,-51
0.178455,80,-118,8340,25,-65,-1
0.178594,6,-74,8342,6,-39,-1
0.178733,33,-133,8295,56,-109,-58
0.178873,-1,-150,8315,38,-58,18
0.179012,8,-101,8250,69,-109,-64
0.179151,58,-77,8307,25,-26,5
0.179291,43,-129,8288,38,-122,-20
0.17943,7,-31,8318,56,-52,-32
0.179569,4,-111,8261,50,-84,-32
0.179709,31,-122,8266,38,-58,-7
0.179848,33,-105,8327,44,-52,-1
0.179987,46,-72,8307,56,-103,-39
0.180127,82,-102,8305,63,-52,-20
0.180266,60,-136,8316,6,-77,-20
0.180405,12,-87,8312,56,-39,-13
0.180544,-24,-133,8326,56,-128,-51
0.180684,21,-146,8335,69,-14,-7
0.180823,15,-127,8271,6,-90,-7
0.180962,37,-122,8242,50,-65,-20
0.181102,44,-131,8305,56,-90,-51
0.181241,25,-86,8330,56,-58,5
0.18138,-9,-93,8290,19,-84,-70
0.18152,-22,-133,8302,56,-84,5
0.181659,33,-158,8315,38,-46,-20
0.181798,34,-90,8287,50,-84,-20
0.181938,0,-133,8262,38,-52,-13
0.182077,-18,-144,8313,88,-116,-45
0.182216,-24,-108,8306,19,-33,37
0.182356,7,-78,8309,44,-109,-39
0.182495,34,-188,8310,50,-46,-39
0.182634,42,-73,8299,44,-58,-20
0.182773,51,-87,8329,6,-84,-1
0.182913,49,-143,8349,94,-65,-51
0.183052,36,-170,8304,38,-58,-7
0.183191,-40,-131,8330,50,-77,-13
0.18333,63,-110,8307,56,-71,-26
0.18347,37,-80,8312,12,-77,-7
0.183609,44,-85,8296,82,-71,-26
0.183749,61,-154,8273,44,-58,-39
0.183888,54,-126,8256,19,-84,-7
0.184027,71,-92,8262,75,-71,-13
0.184167,3,-92,8291,31,-58,-26
0.184306,-33,-122,8320,63,-103,-51
0.184445,-6,-143,8284,19,-39,43
0.184584,-4,-171,8280,50,-84,-77
0.184724,33,-137,8297,44,-90,5
0.184863,52,-127,8298,69,-26,-20
0.185002,27,-155,8293,38,-103,-26
0.185142,-26,-159,8313,25,-58,-20
0.185281,48,-88,8298,44,-52,-39
0.18542,-5,-116,8276,44,-77,-7
0.18556,62,-217,8291,56,-71,-39
0.185699,19,-186,8349,12,-58,5
0.185838,36,-154,8321,56,-103,-64
0.185978,48,-108,8297,31,-39,24
0.186117,50,-122,8351,38,-103,-26
0.186256,12,-107,8298,56,-65,-13
0.186395,-33,-133,8307,56,-77,-39
0.186535,-8,-156,8278,25,-77,-1
0.186674,23,-154,8300,38,-52,-26
0.186813,20,-179,8257,75,-65,-13
0.186953,62,-143,8295,31,-77,-45
0.187092,58,-170,8300,31,-90,5
0.187231,29,-142,8313,44,-33,-1
0.187371,32,-185,8284,38,-109,-39
0.18751,-3,-117,8265,63,-65,-26
0.187651,45,-113,8288,31,-58,-26
0.187789,16,-138,8319,31,-77,-13
0.187928,26,-125,8284,31,-39,-26
0.188067,46,-76,8270,25,-71,-20
0.188206,22,-128,8314,31,-58,18
0.188346,36,-146,8311,107,-135,-89
0.188485,50,-96,8309,25,-52,-20
0.188624,43,-132,8309,-13,-39,37
0.188764,-13,-121,8261,69,-97,-45
0.188903,22,-123,8282,12,-33,-13
0.189042,96,-125,8307,107,-122,-39
0.189182,24,-147,8333,25,-58,5
0.189321,13,-138,8281,25,-46,-58
0.18946,-32,-180,8330,50,-135,5
0.1896,34,-106,8372,25,-33,-20
0.189739,58,-129,8290,44,-90,-20
0.189878,37,-135,8249,19,-20,-1
0.190018,0,-141,8262,50,-122,-32
0.190157,74,-127,8291,50,-20,-39
0.190296,43,-96,8243,25,-97,31
0.190435,68,-72,8232,82,-52,-45
0.190575,-1,-80,8250,38,-90,-26
0.190714,9,-79,8275,38,-71,-26
0.190853,63,-122,8311,75,-77,-13
0.190993,74,-153,8313,19,-52,-26
0.191132,72,-123,8319,44,-84,-32
0.191271,-4,-94,8302,56,-84,12
0.19141,4,-62,8301,31,-39,-39
0.19155,10,-108,8272,31,-109,-32
0.191689,37,-177,8305,63,-46,-1
0.191829,27,-138,8344,69,-65,-45
0.191968,5,-134,8309,25,-71,-20
0.192107,26,-149,8266,31,-65,-7
0.192247,-23,-118,8283,50,-71,-45
0.192387,9,-159,8360,31,-84,12
0.192525,38,-102,8345,82,-77,-26
0.192664,17,-64,8322,0,-14,-32
0.192804,86,-71,8302,82,-122,-45
0.192943,23,-118,8349,12,-39,-1
0.193082,-25,-125,8354,56,-90,-26
0.193222,-4,-145,8315,31,-65,-1
0.193361,47,-117,8306,44,-90,-51
0.1935,52,-128,8332,38,-90,5
0.19364,21,-123,8303,75,-65,-45
0.193779,-4,-97,8261,-19,-77,-13
0.193918,11,-72,8285,100,-46,-20
0.194057,-20,-70,8284,0,-103,-13
0.194197,6,-130,8310,88,-65,-32
0.194338,8,-125,8280,-13,-52,-7
0.194475,18,-127,8306,88,-77,-32
0.194615,15,-35,8329,-6,-77,5
0.194754,27,-145,8296,100,-90,-51
0.194893,-3,-177,8350,12,-52,24
0.195033,31,-100,8316,63,-58,-51
0.195172,26,-73,8320,0,-84,-7
0.195311,3,-88,8279,82,-103,-32
0.195451,24,-89,8254,25,-33,-20
0.19559,-35,-107,8276,75,-90,-39
0.195729,10,-177,8306,-25,-52,18
0.195869,-9,-111,8325,100,-77,-39
0.196008,-11,-110,8259,31,-71,-32
0.196148,32,-92,8325,31,-71,-1
0.196286,72,-79,8334,75,-90,-26
0.196426,29,-80,8331,31,-65,-20
0.196565,7,-96,8345,69,-109,-70
0.196704,69,-78,8316,19,-46,37
0.196844,12,-133,8312,69,-65,-77
0.196983,14,-125,8285,12,-77,24
0.197123,33,-159,8319,38,-65,-45
0.197262,0,-108,8294,56,-71,-39
0.197401,28,-87,8266,19,-84,-7
0.19754,2,-106,8287,50,-71,-1
0.19768,55,-99,8269,38,-103,-58
0.197819,18,-154,8259,69,-33,5
0.197958,32,-102,8237,12,-58,12
0.198097,28,-87,8283,82,-135,-89
0.198238,59,-135,8341,25,-14,12
0.198376,24,-157,8334,50,-109,-7
0.198515,33,-163,8378,-6,-52,-32
0.198655,65,-214,8312,113,-77,-7
0.198794,22,-104,8365,12,-39,-26
0.198933,41,-116,8329,44,-84,-20
0.199073,23,-164,8256,56,-65,-32
0.199212,14,-85,8279,19,-65,-7
0.199351,10,-120,8242,75,-65,-39
0.199491,5,-82,8268,12,-90,-39
0.19963,8,-90,8344,44,-90,-32
0.199769,25,-105,8306,63,-46,31
0.199908,-22,-152,8349,31,-84,-58
0.200048,-14,-165,8283,50,-52,-26
0.200189,67,-127,8338,56,-58,-1
0.200326,31,-104,8303,12,-90,-45
0.200467,19,-158,8345,69,-90,-1
0.200605,42,-131,8256,-13,-46,-20
0.200745,28,-134,8267,94,-65,-39
0.200883,38,-111,8249,-6,-58,-7
0.201023,45,-91,8308,56,-65,-13
0.201162,24,-143,8346,38,-65,-32
0.201302,31,-146,8344,75,-65,-20
0.201441,70,-98,8314,12,-77,-39
0.20158,36,-125,8323,31,-14,37
0.201721,2,-155,8307,44,-97,-70
0.201859,35,-140,8271,31,-65,-1
0.201999,18,-144,8323,63,-58,-26
0.202137,34,-142,8370,56,-103,-39
0.202277,-6,-171,8293,19,-46,18
0.202418,21,-75,8350,44,-109,-58
0.202555,-18,-165,8316,44,-77,5
0.202695,35,-179,8341,56,-46,-26
0.202834,48,-118,8311,12,-77,-45
0.202974,8,-111,8303,31,-71,12
0.203113,33,-103,8320,82,-84,-51
0.203253,11,-147,8313,19,-58,12
0.203392,34,-152,8286,31,-58,-51
0.203531,27,-125,8323,75,-84,18
0.20367,-11,-135,8287,12,-90,-58
0.203809,-16,-196,8288,50,-58,-13
0.203949,33,-150,8339,50,-58,-26
0.20409,-33,-122,8324,56,-33,-7
0.204227,40,-86,8320,6,-90,-20
0.204367,11,-109,8340,107,-71,-39
0.204506,24,-138,8353,-13,-71,-26
0.204647,30,-134,8357,44,-65,5
0.204784,32,-103,8318,38,-46,-20
0.204924,42,-114,8275,50,-122,-20
0.205063,27,-122,8244,44,-33,-39
0.205202,46,-134,8255,44,-77,-7
0.205343,28,-167,8297,25,-65,-39
0.205481,42,-138,8386,50,-97,-7
0.20562,30,-161,8329,31,-1,-1
0.20576,44,-154,8306,25,-135,-70
0.205899,52,-85,8283,38,-46,-1
0.206038,11,-88,8309,75,-90,-32
0.206177,39,-123,8295,44,-65,-13
0.206317,21,-62,8293,12,-84,-1
0.206456,46,-128,8313,44,-26,-26
0.206595,-14,-121,8339,75,-84,-26
0.206734,68,-169,8326,12,-97,-13
0.206874,-30,-116,8286,31,-46,-32
0.207013,16,-75,8296,25,-77,18
0.207152,54,-126,8267,50,-65,-58
0.207292,34,-145,8288,50,-65,-7
0.207431,-19,-91,8325,6,-77,-39
0.207571,4,-132,8316,75,-33,-1
0.20771,12,-146,8315,44,-109,-39
0.207849,8,-144,8256,12,-39,18
0.207988,27,-146,8259,44,-103,-58
0.208128,52,-127,8288,56,-52,-1
0.208268,35,-172,8290,31,-77,-39
0.208407,6,-154,8262,69,-77,-13
0.208546,27,-126,8261,25,-39,-13
0.208685,46,-147,8306,31,-122,-45
0.208824,56,-115,8316,44,-52,-1
0.208965,35,-112,8313,50,-52,-13
0.209103,-13,-77,8289,0,-103,-39
0.209242,54,-120,8310,50,-58,12
0.209382,-16,-99,8286,31,-58,-51
0.209521,5,-179,8277,44,-52,-20
0.209662,18,-145,8332,25,-65,-1
0.209799,10,-131,8257,63,-71,-32
0.209939,5,-163,8330,6,-71,-1
0.21008,39,-129,8347,82,-65,-45
0.210217,47,-108,8298,0,-65,5
0.210357,29,-111,8231,100,-103,-58
0.210498,2,-133,8266,-6,-14,31
0.210635,51,-47,8332,50,-84,-39
0.210782,98,-69,8343,50,-77,-20
0.210914,67,-96,8332,44,-58,-45
0.211053,100,-116,8303,25,-97,5
0.211195,12,-106,8263,69,-71,-51
0.211333,47,-102,8244,6,-52,12
0.211471,5,-130,8266,31,-90,-13
0.21161,6,-140,8329,82,-52,-39
0.211755,29,-129,8328,12,-65,-32
0.21189,-20,-149,8304,50,-77,-13
0.212031,-8,-123,8268,38,-52,-1
0.212168,91,-91,8256,56,-65,-20
0.212307,88,-98,8307,25,-84,-39
0.212446,21,-120,8277,88,-84,5
0.212589,21,-119,8301,6,-26,-45
0.212725,53,-122,8324,75,-97,18
0.212864,83,-176,8305,44,-46,-45
0.213005,-15,-135,8274,25,-65,-7
0.213143,-30,-118,8329,75,-103,-26
0.213282,14,-116,8293,6,-20,5
0.213421,40,-120,8350,44,-109,-58
0.213561,-4,-120,8340,38,-39,31
0.213701,32,-89,8308,56,-128,-64
0.213839,7,-187,8282,50,-46,-20
0.21398,88,-106,8220,-6,-33,31
0.214118,61,-145,8274,69,-116,-51
0.214258,65,-131,8285,38,-77,-32
0.214398,27,-180,8295,25,-39,-7
0.214537,-8,-166,8314,69,-77,-20
0.214675,3,-111,8305,56,-109,-32
0.214815,21,-110,8315,-6,-26,-20
0.214954,-21,-186,8321,63,-71,12
0.215093,81,-165,8345,38,-71,-70
0.215233,-5,-159,8356,63,-71,-26
0.215372,37,-172,8336,44,-77,5
0.215511,52,-163,8298,38,-97,-26
0.215651,17,-138,8253,69,-39,-13
0.21579,-5,-160,8277,50,-65,-39
0.215929,-45,-107,8268,31,-109,-13
0.216069,26,-116,8305,31,-109,12
0.216208,37,-208,8304,38,-20,-26
0.216347,-5,-157,8219,38,-71,-1
0.216486,22,-177,8358,56,-58,-32
0.216626,2,-134,8299,25,-97,-13
0.216765,33,-152,8329,44,-45,-13
0.216904,10,-115,8324,75,-109,-45
0.217044,14,-121,8337,6,-33,-1
0.217183,61,-167,8347,38,-84,-32
0.217322,31,-99,8263,31,-71,-20
0.217462,78,-78,8252,69,-97,-45
0.217601,-23,-49,8324,12,-14,12
0.21774,17,-126,8303,69,-128,-32
0.21788,17,-154,8317,19,-33,-20
0.218019,27,-54,8285,12,-109,-7
0.218158,40,-112,8380,63,-20,12
0.218298,34,-153,8276,63,-109,-70
0.218437,14,-83,8227,31,-77,-1
0.218576,28,-105,8306,50,-71,-7
0.218715,78,-67,8300,31,-52,-45
0.218855,11,-110,8332,50,-65,-51
0.218994,14,-158,8314,38,-77,12
0.219133,33,-125,8290,38,-52,-7
0.219273,-46,-117,8335,63,-122,-77
0.219412,-16,-50,8382,38,-39,12
0.219551,44,-118,8351,69,-39,-20
0.219691,11,-128,8348,12,-128,-32
0.21983,8,-120,8296,63,-52,-32
0.219969,8,-109,8281,0,-52,5
0.220108,23,-151,8271,56,-77,-26
0.220248,2,-124,8304,94,-65,-39
0.220387,8,-92,8282,-13,-103,-1
0.220526,49,-110,8287,88,-84,-39
0.220666,-6,-100,8300,19,-71,5
0.220805,-14,-93,8330,38,-39,-64
0.220944,60,-128,8270,12,-77,37
0.221084,48,-122,8250,50,-84,-45
0.221223,43,-169,8279,44,-58,-26
0.221363,22,-187,8343,38,-71,-39
0.221502,21,-123,8311,31,-71,18
0.221641,-40,-131,8342,6,-103,-51
0.22178,-23,-116,8307,69,-52,-7
0.22192,23,-132,8278,63,-71,-26
0.222059,24,-110,8326,50,-45,-20
0.222198,32,-92,8287,19,-109,-13
0.222337,-4,-114,8304,50,-45,-32
0.222476,13,-73,8334,44,-103,-51
0.222616,50,-119,8276,38,-39,31
0.222755,46,-136,8246,31,-109,-32
0.222894,22,-127,8294,44,-65,-13
0.223034,34,-137,8279,38,-90,-32
0.223174,29,-140,8328,69,-58,-26
0.223312,7,-152,8276,38,-77,-20
0.223453,36,-86,8211,31,-58,-7
0.223592,38,-121,8297,50,-71,-45
0.223731,61,-133,8310,12,-65,-1
0.22387,97,-179,8267,56,-77,-7
0.224009,40,-135,8312,31,-58,-7
0.224148,-11,-102,8278,44,-26,-39
0.224289,-12,-125,8334,25,-97,-39
0.224427,-4,-102,8294,75,-45,5
0.224566,58,-137,8301,-6,-45,-1
0.224706,26,-95,8281,75,-128,-51
0.224845,10,-125,8361,44,-33,18
0.224985,53,-132,8312,12,-45,-45
0.225125,33,-125,8281,56,-122,-20
0.225263,61,-132,8314,75,-33,-39
0.225402,29,-88,8310,6,-58,5
0.225542,41,-115,8279,50,-84,-39
0.225681,52,-113,8289,38,-77,-20
0.225822,-41,-120,8329,56,-45,5
0.22596,21,-84,8313,25,-97,-39
0.226099,20,-46,8325,25,-26,-26
0.226238,12,-115,8290,63,-109,-20
0.226378,42,-151,8298,50,-45,-45
0.226517,32,-112,8276,25,-58,5
0.226656,36,-144,8351,63,-90,-26
0.226795,26,-154,8337,50,-45,5
0.226935,15,-98,8281,38,-77,-45
0.227074,32,-152,8264,50,-84,-26
0.227213,33,-160,8303,69,-77,-26
0.227353,77,-84,8282,19,-77,-20
0.227492,-14,-149,8333,31,-52,5
0.227631,20,-129,8327,94,-71,-45
0.22777,82,-78,8263,0,-77,-13
0.22791,30,-122,8261,63,-97,-32
0.228049,42,-123,8275,50,-71,-32
0.228189,49,-128,8341,31,-33,69
0.228329,33,-84,8328,44,-97,-121
0.228467,46,-125,8287,38,-65,5
0.228606,28,-123,8258,50,-77,-20
0.228746,15,-147,8329,38,-71,-26
0.228885,30,-148,8337,44,-52,5
0.229024,17,-104,8326,63,-84,-51
0.229164,72,-109,8292,12,-39,-1
0.229303,9,-108,8259,63,-109,-32
0.229442,1,-97,8268,6,-39,18
0.229581,27,-87,8260,63,-97,-39
0.229721,20,-123,8327,38,-77,-32
0.22986,6,-150,8320,31,-26,-1
0.23,24,-130,8333,25,-109,-7
0.230139,26,-125,8272,31,-33,-45
0.230278,-20,-158,8330,69,-97,-39
0.230417,13,-93,8306,6,-77,31
0.230557,87,-72,8311,25,-77,-83
0.230696,32,-120,8338,75,-58,37
0.230835,53,-138,8269,31,-77,-39
0.230975,-19,-108,8281,82,-97,-39
0.231114,-35,-102,8286,31,-77,-20
0.231253,50,-141,8299,31,-39,5
0.231393,111,-130,8263,50,-97,-51
0.231532,42,-129,8284,31,-77,-1
0.231671,50,-135,8309,31,-45,-51
0.23181,72,-142,8300,19,-71,5
0.23195,-2,-132,8274,75,-90,-13
0.232089,52,-95,8330,12,-77,-39
0.232228,53,-86,8328,69,-65,5
0.232367,5,-87,8250,82,-97,-64
0.232507,5,-138,8264,-25,-33,24
0.232646,30,-106,8314,94,-116,-58
0.232785,23,-113,8317,0,-65,18
0.232925,18,-146,8344,44,-58,-32
0.233066,48,-108,8272,31,-52,-20
0.233203,24,-131,8344,82,-116,-26
0.233343,23,-78,8306,0,-52,-26
0.233483,68,-147,8282,94,-84,-39
0.233622,65,-174,8337,6,-45,5
0.233762,37,-119,8329,50,-52,-26
0.233904,68,-116,8326,38,-77,5
0.234039,32,-91,8287,50,-116,-89
0.23418,11,-82,8284,6,-33,18
0.234318,78,-106,8327,56,-90,-32
0.234457,50,-117,8251,50,-39,-26
0.234597,35,-113,8276,25,-103,-7
0.234737,27,-100,8332,50,-7,24
0.234875,57,-165,8298,69,-116,-89
0.235014,40,-129,8288,-6,-45,31
0.235154,30,-138,8331,56,-45,-39
0.235293,-30,-117,8372,19,-103,-58
0.235432,1,-152,8318,38,-39,37
0.235572,21,-149,8291,63,-116,-51
0.235711,41,-88,8298,50,-39,-1
0.235852,38,-89,8263,12,-97,-39
0.23599,5,-130,8245,63,-39,-13
0.236129,15,-103,8333,25,-97,-26
0.23627,1,-201,8305,12,-45,5
0.236407,32,-160,8323,94,-116,-39
0.236547,56,-75,8291,12,-1,-39
0.236688,9,-147,8312,44,-97,5
0.236826,1,-145,8316,12,-39,-39
0.236965,53,-122,8299,56,-65,12
0.237104,45,-154,8318,63,-90,-64
0.237245,71,-156,8335,12,-20,24
0.237383,22,-137,8302,31,-77,-58
0.237522,4,-76,8313,94,-90,-20
0.237661,58,-93,8293,6,-52,-13
0.237801,17,-129,8303,50,-52,-7
0.23794,24,-135,8306,31,-97,-13
0.238079,46,-162,8316,56,-39,-32
0.238219,29,-119,8281,31,-65,-20
0.238358,40,-85,8291,75,-97,-45
0.238497,38,-146,8283,19,-71,-7
0.238637,18,-141,8316,6,-26,5
0.23878,6,-167,8356,82,-128,-45
0.238915,40,-93,8373,25,-58,-26
0.239054,20,-114,8299,56,-77,-7
0.239194,0,-160,8327,56,-77,-45
0.239333,25,-125,8279,12,-45,12
0.239472,-16,-115,8362,63,-77,-58
0.239612,34,-110,8353,44,-77,5
0.239751,53,-130,8319,56,-71,-32
0.23989,9,-127,8324,44,-84,-32
0.24003,34,-145,8293,25,-71,12
0.240169,6,-123,8272,44,-77,-32
0.240308,36,-123,8324,50,-84,-26
0.240448,75,-135,8362,50,-33,-20
0.240587,98,-140,8339,56,-97,-20
0.240726,19,-68,8286,38,-84,-13
0.240865,-18,-76,8266,69,-84,-51
0.241005,61,-78,8300,-13,-33,12
0.241144,40,-119,8322,88,-97,-70
0.241283,-13,-129,8253,6,-71,18
0.241423,-34,-162,8312,82,-77,-45
0.241564,39,-149,8307,0,-45,5
0.241702,37,-47,8367,82,-109,-64
0.241842,1,-78,8310,0,-26,-1
0.24198,32,-61,8229,50,-109,-13
0.242119,4,-91,8249,38,-45,-32
0.242258,-46,-118,8336,56,-77,-32
0.242398,-1,-113,8256,12,-58,-7
0.242539,-4,-144,8290,75,-90,-26
0.242676,46,-113,8325,56,-77,-20
0.242816,57,-130,8276,19,-52,-20
0.242955,73,-116,8281,44,-90,12
0.243094,79,-136,8252,56,-71,-70
0.243234,-6,-126,8289,44,-77,-13
0.243374,24,-116,8315,50,-65,-1
0.243515,48,-146,8321,38,-52,-20
0.243653,-19,-94,8354,50,-97,-26
0.243791,33,-63,8330,63,-71,-32
0.24393,40,-105,8313,19,-58,5
0.24407,64,-130,8274,12,-65,-7
0.244209,0,-101,8360,100,-58,-77
0.244348,17,-158,8306,-44,-58,37
0.244487,33,-106,8318,94,-109,-39
0.244627,21,-103,8294,38,-26,-20
0.244768,59,-86,8244,44,-77,-20
0.244905,22,-160,8340,25,-65,-20
0.245045,0,-138,8285,63,-84,-32
0.245184,73,-112,8300,25,-39,-13
0.245323,63,-154,8327,6,-71,5
0.245463,55,-113,8327,100,-58,-51
0.245602,-12,-63,8283,-6,-77,-1
0.245741,8,-125,8307,50,-65,5
0.245881,19,-117,8315,50,-90,-58
0.24602,10,-119,8313,38,-45,-1
0.246159,24,-86,8320,75,-90,-13
0.246299,5,-78,8350,12,-71,-20
0.246438,57,-54,8295,69,-90,-39
0.246579,22,-62,8301,6,-45,-26
0.246716,10,-114,8332,38,-39,12
0.246856,-13,-155,8296,82,-90,-64
0.246995,-38,-218,8316,25,-58,43
0.247134,-6,-114,8341,31,-97,-58
0.247274,-4,-142,8279,12,-65,-32
0.247413,34,-177,8293,50,-52,-13
0.247552,48,-143,8322,44,-97,-1
0.247693,31,-123,8226,31,-45,-45
0.247831,41,-106,8268,44,-90,-13
0.24797,72,-143,8333,56,-65,-51
0.248109,24,-90,8271,6,-71,24
0.248249,36,-138,8340,56,-109,-58
0.248388,13,-168,8368,19,-45,12
0.248528,-8,-144,8288,75,-45,-51
0.248667,35,-122,8248,19,-103,-20
0.248806,-34,-145,8274,44,-20,18
0.248946,5,-142,8285,50,-122,-83
0.249085,50,-81,8269,38,-45,31
0.249224,59,-120,8262,44,-65,-51
0.249364,7,-157,8254,63,-103,-13
0.249503,11,-113,8253,44,-84,-13
0.249642,34,-131,8318,-6,-52,-13
0.249781,53,-156,8255,88,-90,-58
0.249921,53,-156,8275,38,-39,5
0.25006,55,-108,8331,38,-97,-32
0.250199,78,-109,8336,44,-52,-7
0.250338,19,-134,8319,38,-58,-39
0.250478,33,-164,8291,56,-97,-13
0.250617,17,-139,8309,31,-77,-26
0.250757,48,-83,8277,69,-71,-45
0.250896,13,-105,8312,-19,-65,12
0.251035,37,-169,8288,107,-77,-58
0.251174,48,-128,8290,31,-77,12
0.251314,40,-145,8323,31,-52,-20
0.251453,-22,-137,8320,56,-90,-26
0.251592,24,-129,8301,6,-65,-13
0.251733,5,-150,8319,44,-77,-13
0.251871,30,-110,8264,56,-58,-1
0.25201,0,-151,8253,50,-84,-51
0.252149,46,-108,8291,25,-84,-26
0.252289,-12,-135,8287,88,-65,-13
0.252428,48,-100,8310,-6,-33,-13
0.252567,84,-109,8303,69,-97,-32
0.252707,-4,-74,8338,44,-90,-13
0.252846,44,-90,8276,63,-65,5
0.252985,59,-122,8279,25,-71,-51
0.253125,60,-117,8313,31,-45,-7
0.253264,102,-169,8252,50,-84,-20
0.253404,7,-128,8297,56,-97,-51
0.253543,-19,-152,8327,31,-39,31
0.253682,21,-114,8328,44,-109,-51
0.253821,34,-121,8283,75,-52,-1
0.253961,47,-111,8291,-6,-84,-32
0.2541,56,-192,8344,38,-84,-26
0.254239,-1,-172,8346,82,-65,-7
0.254378,7,-82,8255,44,-65,-13
0.254518,16,-97,8273,12,-39,-20
0.254657,72,-126,8272,38,-90,-26
0.254798,36,-116,8304,69,-65,-13
0.254936,24,-123,8330,6,-58,-13
0.255078,29,-167,8297,88,-103,-83
0.255214,9,-135,8315,-6,-45,50
0.255354,78,-122,8283,75,-90,-45
0.255494,45,-88,8291,25,-71,-45
0.255632,-46,-131,8317,38,-52,24
0.255772,42,-130,8286,63,-97,-58
0.255911,53,-155,8340,6,-84,5
0.25605,7,-181,8283,75,-58,-39
0.25619,58,-118,8292,19,-77,-32
0.256329,79,-100,8262,31,-84,-13
0.256468,33,-153,8278,75,-39,5
0.256608,17,-125,8276,25,-109,-51
0.256747,12,-104,8297,50,-39,-13
0.256886,8,-173,8291,19,-84,-7
0.257026,-4,-75,8359,44,-45,-58
0.257165,-20,-91,8376,63,-84,37
0.257304,33,-102,8295,50,-90,-83
0.257443,4,-150,8270,63,-52,12
0.257583,17,-92,8287,6,-52,-20
0.257722,-16,-147,8328,44,-84,-32
0.257861,68,-106,8294,75,-77,-7
0.258,12,-54,8307,31,-71,-51
0.25814,42,-129,8295,50,-33,-1
0.258279,-52,-125,8306,63,-116,-32
0.258418,-11,-107,8293,50,-65,-45
0.258558,38,-128,8357,0,-20,37
0.258697,37,-152,8352,69,-103,-39
0.258837,-38,-92,8337,31,-58,-26
0.258976,15,-92,8297,44,-77,-13
0.259115,22,-72,8298,44,-65,-39
0.259254,-6,-108,8345,63,-109,-39
0.259394,57,-174,8336,-6,-33,18
0.259533,34,-130,8317,50,-84,-20
0.259672,-25,-109,8266,100,-97,-96
0.259812,12,-108,8325,-6,-45,88
0.259951,38,-136,8315,82,-58,-77
0.26009,61,-100,8300,50,-97,-7
0.26023,60,-106,8273,44,-90,-26
0.260369,23,-145,8248,19,-65,-7
0.260508,-18,-170,8304,19,-71,-26
0.260648,-57,-122,8297,75,-65,-26
0.260788,32,-105,8271,56,-77,-7
0.260926,44,-95,8286,12,-90,-45
0.261066,-23,-63,8294,69,-52,-13
0.261205,-6,-133,8330,44,-97,-39
0.261344,7,-143,8285,25,-58,-1
0.261484,53,-131,8300,38,-58,-1
0.261624,67,-133,8284,31,-71,-51
0.261762,66,-48,8290,82,-58,-20
0.261902,53,-124,8288,6,-116,-39
0.26204,-5,-133,8332,94,-39,-13
0.262181,10,-106,8331,-13,-71,-1
0.262319,5,-183,8277,107,-58,-45
0.262458,43,-169,8289,50,-116,-45
0.262598,72,-143,8332,6,-52,24
0.262737,7,-76,8306,38,-71,-45
0.262876,62,-130,8277,63,-77,12
0.263015,34,-114,8321,63,-109,-64
0.263155,36,-121,8339,0,-20,18
0.263294,25,-130,8361,56,-58,-26
0.263433,58,-89,8335,69,-103,-70
0.263573,14,-117,8243,63,-52,12
0.263712,35,-91,8278,6,-71,-13
0.263851,1,-87,8345,63,-71,-26
0.263991,27,-114,8346,25,-97,-32
0.264131,43,-93,8306,88,-90,-20
0.264269,22,-59,8376,12,-58,-7
0.264411,44,-110,8344,38,-65,-26
0.264548,18,-101,8295,63,-71,-1
0.264687,88,-100,8236,25,-77,-39
0.264827,78,-137,8298,50,-71,-26
0.264966,19,-169,8328,50,-84,-51
0.265105,43,-170,8317,0,-71,12
0.265246,-7,-109,8325,107,-77,-51
0.26539,-16,-140,8323,6,-65,12
0.265523,57,-116,8317,44,-65,-39
0.265663,-24,-81,8300,63,-71,18
0.265802,14,-137,8316,19,-58,-77
0.265941,13,-138,8327,56,-84,12
0.266081,22,-141,8326,63,-58,-39
0.26622,56,-132,8277,12,-58,-1
0.266359,78,-104,8299,94,-103,-45
0.266498,104,-151,8275,6,-45,5
0.266638,44,-141,8314,44,-109,-51
0.266777,18,-85,8274,25,-14,31
0.266916,-1,-60,8237,56,-90,-58
0.267056,14,-136,8296,56,-77,-7
0.267195,24,-118,8314,38,-39,-45
0.267338,30,-104,8296,19,-90,31
0.267474,71,-116,8276,88,-109,-108
0.267613,40,-55,8290,-6,-39,50
0.267752,31,-76,8320,69,-65,-58
0.267892,2,-74,8268,25,-97,-32
0.268031,4,-135,8262,56,-77,-20
0.26817,40,-110,8268,56,-71,-7
0.268309,50,-130,8320,6,-65,-32
0.268449,52,-161,8343,100,-97,-26
0.268588,8,-131,8308,19,-58,24
0.268727,30,-92,8268,38,-71,-20
0.268867,-16,-66,8291,69,-103,-51
0.269006,52,-96,8239,63,-71,-7
0.269145,16,-101,8251,6,-26,-20
0.269285,49,-85,8290,82,-84,-39
0.269424,73,-123,8322,12,-45,5
0.269563,15,-101,8302,69,-122,-45
0.269703,33,-122,8290,50,-39,-20
0.269842,58,-112,8305,25,-90,-7
0.269981,5,-105,8350,56,-103,-58
0.27012,1,-128,8307,25,-39,-13
0.27026,26,-148,8334,25,-90,-13
0.270399,39,-92,8306,38,-58,-45
0.270538,32,-112,8308,50,-77,-7
0.270678,39,-107,8262,50,-71,-26
0.270817,30,-101,8303,19,-58,-58
0.270956,-15,-148,8317,82,-65,24
0.271096,42,-127,8273,25,-109,-39
0.271235,16,-115,8298,44,-33,-39
0.271376,6,-136,8289,31,-97,-7
0.271514,-12,-157,8305,44,-77,-7
0.271654,13,-101,8314,69,-52,-58
0.271792,41,-142,8272,25,-65,24
0.271932,46,-132,8272,12,-77,-58
0.272071,27,-121,8317,75,-84,-7
0.27221,21,-109,8316,38,-71,-45
0.272349,18,-138,8308,31,-52,24
0.272488,15,-118,8274,75,-128,-77
0.272628,48,-93,8322,25,-46,24
0.272767,54,-130,8316,25,-65,-39
0.272906,45,-88,8286,75,-97,-39
0.273046,26,-117,8295,38,-77,-20
0.273186,40,-103,8286,31,-52,18
0.273325,39,-121,8286,31,-103,-58
0.273464,34,-110,8273,44,-46,-20
0.273603,34,-154,8359,31,-46,-7
0.273746,3,-135,8303,25,-84,-39
0.273883,39,-131,8266,75,-90,-1
0.274021,23,-132,8332,50,-52,-58
0.27416,26,-116,8329,38,-39,18
0.274302,32,-130,8268,44,-97,-13
0.274439,-22,-88,8337,38,-46,-13
0.274578,-18,-73,8294,19,-71,-26
0.274717,31,-35,8298,75,-52,-45
0.274857,-5,-90,8285,31,-65,-7
0.274997,56,-166,8326,44,-71,-1
0.275135,52,-157,8293,44,-97,-51
0.275275,35,-135,8299,25,-46,-20
0.275414,-20,-105,8281,69,-77,5
0.275553,26,-159,8351,31,-65,-39
0.275694,25,-95,8294,25,-71,-1
0.275832,-9,-90,8278,56,-116,-39
0.275972,52,-89,8323,63,-26,-26
0.276111,-2,-123,8298,44,-90,-1
0.27625,-4,-120,8295,56,-58,-45
0.27639,28,-99,8336,25,-116,-13
0.276529,28,-122,8296,31,-71,-26
0.276668,34,-86,8308,50,-71,-13
0.276807,-14,-120,8356,56,-71,-32
0.276947,39,-90,8322,56,-46,-7
0.277086,41,-112,8283,25,-90,-13
0.277225,51,-169,8306,63,-52,-58
0.277365,-4,-167,8298,19,-84,12
0.277504,57,-146,8260,69,-65,-13
0.277643,48,-101,8259,19,-77,-20
0.277782,77,-128,8316,56,-90,-20
0.277922,17,-169,8336,50,-46,-45
0.278061,37,-87,8274,44,-71,-13
0.2782,64,-118,8267,44,-71,-7
0.27834,57,-103,8300,56,-46,-51
0.278479,47,-142,8340,31,-109,-20
0.278618,68,-149,8320,50,-39,24
0.278757,82,-115,8353,63,-97,-83
0.278897,21,-69,8281,19,-58,5
0.279036,44,-114,8316,56,-122,-26
0.279176,52,-121,8320,63,-39,-32
0.279315,25,-78,8277,56,-97,-45
0.279458,-7,-99,8296,6,-14,18
0.279594,57,-121,8281,63,-103,-20
0.279733,35,-102,8323,38,-84,-13
0.279872,10,-108,8278,56,-97,-64
0.280011,55,-59,8260,25,-20,12
0.280151,33,-136,8269,56,-90,-26
0.28029,-7,-127,8261,31,-90,-45
0.280431,11,-88,8280,44,-71,5
0.280569,59,-69,8318,50,-46,-13
0.280708,12,-121,8332,38,-46,-32
0.280847,47,-93,8299,69,-109,-32
0.280987,45,-78,8276,12,-71,-7
0.281126,6,-41,8309,69,-71,-20
0.281265,29,-74,8352,25,-46,-26
0.281406,57,-177,8332,63,-65,12
0.281545,65,-128,8242,50,-103,-83
0.281683,41,-115,8308,-19,-46,12
0.281822,20,-145,8321,75,-46,-51
0.281964,72,-92,8309,50,-116,5
0.282102,-15,-54,8330,31,-33,-45
0.28224,128,-119,8332,63,-97,-13
0.282379,79,-105,8315,50,-46,-7
0.282519,31,-130,8286,38,-65,-51
0.282658,14,-164,8348,31,-77,-26
0.282797,71,-105,8336,94,-90,-39
0.282937,58,-74,8322,-19,-52,31
0.283076,36,-115,8323,69,-90,-45
0.283216,-22,-84,8269,44,-77,-32
0.283355,47,-82,8230,56,-46,-20
0.283495,49,-71,8308,31,-103,-7
0.283633,89,-157,8284,50,-46,-32
0.283774,24,-150,8318,50,-97,-13
0.283912,4,-122,8278,31,-58,-32
0.284051,54,-116,8275,69,-90,-32
0.284191,71,-126,8302,12,-52,18
0.28433,53,-118,8290,44,-58,-64
0.284469,63,-96,8326,63,-71,-1
0.284609,44,-114,8336,50,-84,-39
0.284748,13,-135,8299,50,-71,-26
0.284887,54,-58,8272,69,-84,-32
0.285026,44,-94,8342,25,-58,18
0.285165,37,-124,8328,25,-65,-32
0.285305,49,-102,8336,50,-71,-26
0.285444,39,-43,8350,50,-116,-20
0.285584,43,-95,8298,31,-20,-26
0.285723,53,-63,8269,75,-116,-39
0.285862,51,-84,8281,38,-26,24
0.286002,27,-144,8257,44,-116,-89
0.286141,46,-103,8299,12,-46,31
0.28628,64,-65,8290,50,-65,-64
0.28642,22,-123,8293,75,-97,-1
0.286559,5,-128,8249,6,-46,-26
0.286698,19,-62,8337,88,-97,-45
0.286838,79,-110,8324,12,-33,12
0.286977,68,-138,8259,31,-84,-32
0.287116,6,-47,8325,69,-90,-39
0.287255,26,-55,8280,25,-71,-1
0.287395,48,-112,8285,50,-71,-51
0.287534,76,-86,8275,31,-52,-7
0.287673,24,-63,8282,69,-58,-7
0.287813,75,-151,8340,44,-116,-51
0.287952,25,-179,8307,-6,-45,5
0.288091,40,-88,8330,69,-39,-51
0.288231,2,-99,8315,69,-109,5
0.28837,41,-91,8299,25,-33,-32
0.288509,23,-86,8272,38,-97,-20
0.288648,-13,-102,8319,88,-65,-13
0.288788,4,-167,8302,12,-77,-39
0.288927,75,-137,8306,38,-33,12
0.289066,35,-97,8282,69,-109,-64
0.289206,85,-128,8313,25,-52,31
0.289345,114,-109,8305,63,-71,-96
0.289484,53,-79,8345,19,-71,37
0.289624,42,-115,8263,56,-77,-26
0.289763,13,-91,8368,0,-45,-51
0.289906,10,-99,8361,100,-97,-13
0.290042,31,-149,8333,31,-45,-39
0.290181,54,-154,8328,12,-58,43
0.29032,47,-144,8335,94,-84,-96
0.29046,54,-120,8342,25,-45,5
0.290599,21,-134,8294,19,-97,5
0.290738,14,-140,8291,44,-52,-64
0.290877,-19,-132,8298,38,-71,-7
0.291017,-14,-167,8323,56,-90,18
0.291156,56,-172,8303,6,-65,-70
0.291295,20,-147,8287,88,-65,24
0.291435,-20,-132,8330,38,-65,-64
0.291574,37,-138,8324,25,-65,5
0.291713,55,-106,8283,44,-84,-13
0.291853,53,-129,8326,63,-52,-45
0.291992,16,-132,8280,-6,-90,-7
0.292131,8,-125,8270,100,-52,-26
0.292271,17,-159,8347,31,-103,-20
0.29241,6,-142,8326,0,-7,-13
0.292549,9,-88,8347,82,-97,-32
0.292688,40,-123,8246,-6,-58,-13
0.292828,37,-112,8308,75,-77,-45
0.292967,38,-163,8272,69,-58,12
0.293106,76,-158,8269,0,-97,-26
0.293246,43,-128,8344,63,-39,-39
0.293385,6,-117,8295,44,-103,-13
0.293524,49,-121,8329,12,-58,-7
0.293665,79,-174,8301,63,-58,-20
0.293803,54,-113,8257,69,-97,-45
0.293942,49,-80,8272,19,-58,-13
0.294082,37,-127,8266,56,-84,-26
0.294221,10,-104,8317,38,-45,-39
0.29436,60,-96,8275,19,-97,18
0.294499,76,-159,8285,88,-45,-26
0.294639,-1,-88,8305,38,-103,-70
0.294778,-10,-102,8287,19,-52,50
0.294917,11,-134,8272,63,-90,-51
0.295057,-15,-105,8319,56,-45,-26
0.295196,54,-146,8323,38,-90,5
0.295338,44,-120,8304,31,-103,-70
0.295475,50,-94,8326,56,-14,56
0.295614,35,-81,8312,31,-103,-64
0.295753,26,-94,8277,50,-77,-51
0.295893,2,-122,8237,6,-52,24
0.296032,53,-140,8297,88,-97,-45
0.296171,-13,-136,8277,-19,-39,-26
0.296311,41,-132,8271,94,-103,-32
0.29645,66,-118,8331,12,-33,-13
0.296589,41,-121,8339,56,-71,-26
0.296728,17,-118,8343,44,-77,-26
0.296868,26,-144,8288,19,-52,5
0.297007,13,-102,8270,63,-65,-58
0.297146,7,-100,8336,50,-84,-1
0.297286,24,-161,8340,31,-65,-39
0.297425,34,-160,8284,50,-65,-1
0.297564,67,-176,8288,31,-71,-20
0.297704,25,-141,8313,63,-58,-26
0.297843,76,-106,8264,6,-77,-45
0.297982,57,-124,8254,69,-77,12
0.298122,61,-134,8314,44,-71,-45
0.298261,26,-126,8363,50,-77,-32
0.2984,29,-136,8337,19,-58,24
0.298539,23,-97,8307,69,-109,-70
0.298679,19,-95,8315,6,-52,-7
0.298818,35,-132,8288,50,-90,-1
0.298957,-5,-129,8356,50,-39,-20
0.299097,37,-105,8320,69,-97,-26
0.299236,19,-163,8260,25,-84,-32
0.299375,40,-90,8310,25,-52,-13
0.299515,39,-67,8317,50,-58,5
0.299654,30,-144,8302,50,-77,-39
0.299793,-4,-148,8301,6,-77,-13
0.299933,-6,-96,8235,75,-71,-20
0.300072,27,-87,8277,44,-71,-32
0.300211,35,-132,8293,44,-65,-7
0.30035,-6,-134,8306,25,-97,-26
0.30049,-13,-121,8296,31,-45,-1
0.300629,13,-135,8271,75,-103,-51
0.300768,-4,-154,8325,25,-58,-1
0.300908,17,-147,8289,44,-71,-26
0.301047,58,-130,8290,44,-65,-1
0.301186,36,-146,8305,38,-90,-58
0.301326,52,-141,8345,75,-52,5
0.301465,73,-77,8303,38,-84,-1
0.301604,26,-126,8306,19,-65,-51
0.301744,-18,-97,8342,88,-97,-26
0.301883,68,-130,8348,-19,-33,50
0.302022,68,-119,8330,94,-77,-102
0.302161,48,-135,8266,6,-39,43
0.302301,39,-127,8265,69,-90,-39
0.30244,27,-82,8293,25,-52,-26
0.302579,34,-110,8301,75,-103,-77
0.302719,29,-127,8301,-13,-26,50
0.302858,85,-122,8315,82,-90,-51
0.302997,34,-142,8264,56,-52,-32
0.303137,67,-127,8259,25,-97,-7
0.303276,43,-93,8287,44,-20,-20
0.303415,-3,-142,8294,44,-109,-13
0.303555,56,-175,8297,56,-103,-26
0.303694,-10,-161,8322,44,-58,-26
0.303833,-15,-164,8331,75,-33,-13
0.303973,47,-91,8320,6,-84,-20
0.304112,20,-93,8338,94,-109,-45
0.304251,12,-68,8270,12,-39,-1
0.30439,6,-125,8320,69,-109,-20
0.30453,30,-189,8302,31,-71,-20
0.304669,80,-122,8300,44,-45,-39
0.304808,29,-93,8295,50,-128,-1
0.304948,21,-153,8278,12,-33,-13
0.305087,0,-144,8311,75,-90,-58
0.305226,62,-152,8317,38,-39,18
0.305366,26,-154,8325,50,-65,-26
0.305505,15,-204,8297,69,-84,-20
0.305644,56,-132,8304,-13,-84,-45
0.305784,65,-118,8373,50,-26,18
0.305923,59,-100,8295,82,-103,-51
0.306062,58,-94,8274,25,-97,-1
0.306201,-5,-166,8272,75,-58,-64
0.306342,-13,-151,8282,6,-65,5
0.30648,68,-136,8262,63,-84,-13
0.306619,56,-127,8313,6,-46,-7
0.306759,51,-93,8293,56,-97,-39
0.306899,-43,-149,8336,82,-52,-26
0.307037,-23,-108,8353,12,-52,-7
0.307176,-8,-142,8356,25,-52,-13
0.30732,-11,-128,8302,75,-116,-39
0.307456,60,-83,8259,19,-26,-7
0.307595,74,-106,8293,19,-71,-20
0.307734,36,-109,8279,75,-58,-45
0.307873,3,-141,8296,38,-90,-26
0.308012,16,-150,8273,38,-65,-20
0.308153,19,-108,8289,12,-46,5
0.308291,7,-141,8304,25,-90,-45
0.30843,74,-143,8333,56,-46,-13
0.30857,51,-175,8309,44,-90,-20
0.30871,46,-114,8279,63,-46,-26
0.30885,-6,-84,8352,-25,-65,-7
0.308988,28,-157,8327,63,-58,-1
0.309127,67,-101,8309,75,-90,-39
0.309266,-12,-110,8337,12,-58,-26
0.309406,-16,-144,8295,44,-84,-26
0.309546,-15,-137,8327,50,-52,5
0.309684,36,-153,8314,25,-71,-39
0.309824,34,-128,8293,44,-109,-32
0.309963,16,-96,8303,31,-71,-20
0.310102,-21,-136,8282,63,-52,-7
0.310242,19,-134,8296,25,-46,-45
0.310381,11,-89,8227,44,-97,-1
0.31052,29,-101,8291,19,-52,-7
0.310659,40,-32,8318,56,-65,-45
0.310799,25,-145,8304,25,-84,-20
0.310938,24,-174,8321,44,-58,-7
0.311077,34,-90,8292,75,-84,-26
0.311216,21,-58,8288,19,-84,-13
0.311356,14,-93,8327,63,-58,-32
0.311495,66,-154,8289,19,-52,-20
0.311634,10,-142,8354,31,-90,-20
0.311774,66,-161,8364,12,-39,-20
0.311913,18,-97,8363,82,-109,-32
0.312053,-29,-132,8277,31,-46,-13
0.312192,21,-99,8271,75,-90,-32
0.312333,-7,-109,8319,0,-39,12
0.31247,-26,-111,8282,56,-84,-51
0.312611,96,-88,8305,31,-46,5
0.312749,4,-154,8312,107,-90,-20
0.312888,17,-102,8299,-13,-58,-13
0.313027,-20,-92,8322,44,-84,-39
0.313167,0,-91,8293,56,-46,12
0.313307,33,-162,8299,50,-90,-58
0.313447,19,-131,8315,31,-39,-7
0.313586,45,-129,8340,38,-77,-7
0.313724,2,-129,8292,63,-65,-32
0.313864,-61,-126,8308,-13,-103,5
0.314003,-1,-98,8314,69,-46,-45
0.314142,18,-122,8241,31,-77,-13
0.314281,33,-154,8294,50,-84,-45
0.314421,7,-150,8228,19,-52,-7
0.31456,46,-113,8289,63,-77,-45
0.314701,84,-131,8324,44,-33,18
0.314839,23,-130,8303,25,-103,-45
0.314978,3,-154,8299,44,-46,-13
0.315119,68,-154,8296,19,-84,-39
0.315257,59,-92,8298,69,-33,-1
0.315397,6,-124,8252,31,-103,-32
0.315535,13,-110,8291,75,-46,-58
0.315674,22,-162,8315,12,-65,-7
0.315815,-24,-117,8315,69,-97,-13
0.315953,26,-119,8305,-6,-52,5
0.316093,66,-115,8316,63,-65,-51
0.316234,17,-97,8303,31,-52,-1
0.316371,5,-105,8288,69,-97,-20
0.316512,45,-93,8269,38,-39,-39
0.316651,-53,-82,8274,56,-109,-13
0.31679,40,-112,8269,25,-26,-20
0.316929,21,-99,8295,12,-109,-13
0.317068,60,-141,8303,44,-20,-13
0.317208,7,-172,8321,69,-109,-20
0.317346,21,-186,8340,25,-46,-39
0.317486,-57,-145,8344,38,-77,-7
0.317625,-17,-151,8327,31,-52,-1
0.317765,32,-129,8388,56,-58,-20
0.317904,18,-121,8290,44,-97,-58
0.318043,73,-126,8285,31,-65,-1
0.318182,-55,-161,8271,31,-65,-26
0.318322,-6,-145,8344,19,-46,-26
0.318462,15,-136,8325,63,-90,-1
0.3186,59,-131,8323,31,-52,-45
0.31874,31,-117,8309,38,-77,-26
0.318881,25,-121,8279,44,-33,-1
0.319018,49,-101,8279,50,-109,-32
0.319157,40,-88,8293,31,-39,-51
0.319298,63,-99,8349,63,-116,-20
0.319436,57,-127,8307,12,-14,-7
0.319575,84,-74,8318,50,-122,-32
0.319714,-6,-88,8285,44,-65,-64
0.319854,40,-106,8300,50,-65,24
0.319993,34,-47,8299,12,-46,-20
0.320132,59,-67,8284,69,-84,-64
0.320272,21,-76,8293,25,-103,5
0.320411,68,-129,8327,38,-52,-26
0.32055,-21,-130,8299,82,-65,-20
0.32069,4,-128,8303,6,-77,-64
0.320829,31,-144,8277,63,-52,5
0.32097,13,-163,8275,12,-65,24
0.321109,25,-161,8238,56,-90,-77
0.321248,9,-146,8315,44,-33,12
0.321386,42,-138,8259,63,-103,-26
0.321525,71,-135,8290,-13,-20,12
0.321665,47,-151,8258,88,-135,-51
0.321806,4,-133,8267,12,-26,-20
0.321943,49,-180,8297,56,-46,-20
0.322083,19,-169,8330,6,-97,-26
0.322224,-5,-98,8311,94,-33,18
0.322361,56,-70,8298,19,-71,-45
0.322502,49,-145,8306,38,-109,-20
0.32264,42,-149,8300,38,-46,-39
0.32278,6,-132,8264,31,-84,12
0.32292,16,-80,8290,50,-71,-45
0.323058,-17,-130,8303,25,-71,-1
0.323197,0,-146,8299,38,-39,-13
0.323338,31,-134,8323,25,-116,-39
0.323476,68,-147,8328,75,-71,-45
0.323615,-18,-125,8333,12,-45,12
0.323755,-7,-49,8313,25,-97,-45
0.323894,3,-114,8316,69,-71,24
0.324033,61,-125,8324,50,-71,-64
0.324172,75,-140,8336,12,-39,-1
0.324312,11,-136,8340,50,-90,-20
0.324451,37,-133,8340,38,-84,-51
0.324591,60,-60,8346,25,-26,31
0.32473,21,-83,8289,75,-97,-45
0.324869,8,-74,8287,25,-77,-32
0.325008,-4,-72,8290,38,-90,12
0.325148,-11,-91,8267,44,-20,-45
0.325287,30,-88,8355,56,-103,-26
0.325426,1,-89,8309,63,-84,-7
0.325565,43,-151,8291,25,-65,-64
0.325706,20,-96,8322,69,-52,18
0.325844,30,-65,8296,31,-71,-51
0.325984,-6,-143,8324,38,-77,12
0.326123,36,-136,8293,38,-84,-32
0.326262,108,-172,8349,75,-65,-39
0.326403,88,-183,8313,25,-77,-26
0.326541,11,-147,8350,56,-65,-32
0.32668,25,-112,8305,25,-71,-7
0.326819,-7,-89,8324,50,-71,-39
0.326959,45,-147,8268,50,-71,-7
0.327098,20,-131,8301,63,-84,-26
0.327237,70,-132,8347,19,-71,-7
0.327377,26,-78,8275,63,-84,-51
0.327516,36,-136,8289,44,-65,12
0.327655,41,-111,8295,44,-77,-39
0.327795,52,-136,8320,25,-20,18
0.327934,48,-152,8283,75,-135,-51
0.328073,57,-151,8319,31,-58,-13
0.328212,65,-111,8306,31,-33,-1
0.328351,45,-153,8298,75,-97,-7
0.328491,35,-163,8304,12,-71,-58
0.328631,63,-222,8315,50,-71,-20
0.328771,42,-150,8242,19,-65,-7
0.328909,34,-158,8291,69,-52,-20
0.329048,21,-148,8330,25,-71,-26
0.329188,32,-127,8251,50,-77,-20
0.329327,-31,-83,8230,56,-103,-13
0.329466,36,-87,8321,25,-26,-20
0.329605,39,-92,8326,69,-103,-32
0.329745,38,-101,8293,6,-33,24
0.329884,67,-127,8281,25,-116,-64
0.330023,25,-124,8273,69,-71,-1
0.330163,47,-124,8337,69,-58,-39
0.330303,3,-134,8294,12,-65,-13
0.330441,59,-97,8302,56,-103,-20
0.330581,63,-135,8298,25,-65,-51
0.33072,34,-126,8264,38,-65,24
0.330862,34,-174,8247,63,-90,-51
0.330999,45,-132,8291,12,-65,-1
0.331138,36,-143,8305,69,-65,-20
0.331277,21,-132,8300,25,-77,-45
0.331416,28,-98,8296,75,-77,-7
0.331556,13,-118,8298,6,-58,-26
0.331696,2,-162,8355,50,-58,-13
0.331834,2,-76,8376,31,-90,-20
0.331974,66,-121,8313,63,-77,-32
0.332113,26,-80,8275,25,-33,-13
0.332252,46,-70,8271,-25,-45,-32
0.332393,61,-140,8327,157,-128,-1
0.332531,6,-88,8342,-32,-45,-26
0.33267,24,-86,8311,44,-77,-32
0.33281,19,-123,8282,94,-71,-39
0.332949,9,-127,8250,-38,-52,18
0.33309,13,-148,8274,82,-65,-45
0.333228,56,-57,8250,69,-71,-32
0.333367,50,-127,8294,6,-52,24
0.333514,33,-145,8288,63,-90,-64
0.333647,-23,-105,8303,31,-65,-13
0.333785,3,-131,8316,31,-71,5
0.333924,51,-131,8278,31,-58,-39
0.334064,6,-119,8329,50,-90,-26
0.334203,5,-111,8318,50,-65,-7
0.334342,-7,-131,8304,12,-71,-20
0.334481,-6,-95,8275,25,-45,-26
0.334621,31,-137,8283,100,-90,-26
0.33476,12,-98,8344,12,-52,-1
0.334899,-8,-106,8300,19,-77,-32
0.335038,48,-122,8257,56,-71,-13
0.335178,59,-130,8307,56,-58,-45
0.335317,43,-143,8352,6,-90,5
0.335456,86,-105,8291,63,-65,-26
0.335596,39,-127,8342,31,-97,-7
0.335735,46,-113,8319,56,-45,-45
0.335874,26,-119,8310,12,-65,5
0.336014,28,-197,8281,88,-90,-45
0.336153,25,-86,8275,44,-39,-1
0.336293,58,-76,8244,-13,-77,-20
0.336432,32,-94,8313,88,-97,-32
0.336571,13,-163,8347,-13,-33,-7
0.33671,5,-90,8330,75,-97,-45
0.33685,11,-110,8338,44,-103,-7
0.336989,47,-135,8312,44,-14,-26
0.337128,60,-146,8316,38,-84,-7
0.337268,-20,-111,8330,19,-71,-20
0.337407,-19,-135,8283,100,-77,-32
0.337546,29,-150,8301,-13,-71,-13
0.337686,-19,-142,8317,75,-71,-13
0.337825,8,-112,8320,56,-71,-45
0.337964,7,-148,8349,31,-52,-32
0.338104,17,-133,8308,25,-116,-1
0.338243,41,-143,8291,69,-39,-32
0.338382,48,-113,8280,-25,-97,18
0.338521,52,-153,8320,113,-45,-45
0.338661,4,-167,8283,25,-90,-26
0.3388,5,-162,8250,50,-65,-13
0.33894,-3,-196,8301,44,-84,-26
0.339079,72,-127,8299,69,-90,-51
0.339218,17,-155,8245,6,-1,50
0.339357,8,-151,8339,56,-84,-70
0.339496,20,-141,8278,63,-77,5
0.339636,6,-132,8265,25,-77,-45
0.339775,28,-127,8350,38,-52,37
0.339914,32,-76,8335,56,-103,-96
0.340054,63,-104,8330,38,-39,31
0.340193,42,-118,8283,19,-65,-39
0.340332,30,-128,8302,63,-90,-45
0.340472,58,-143,8299,12,-45,31
0.340611,28,-103,8325,50,-71,-58
0.340751,20,-106,8255,50,-77,-13
0.34089,58,-77,8318,31,-52,-13
0.341029,32,-142,8317,50,-84,-7
0.341168,39,-119,8344,50,-65,-77
0.341307,61,-109,8335,44,-65,31
0.341447,66,-155,8291,56,-109,-77
0.341586,58,-168,8331,-13,-20,12
0.341727,-5,-90,8339,69,-97,-45
0.341865,19,-93,8340,50,-65,-32
0.342004,3,-149,8347,56,-77,5
0.342143,-1,-156,8252,-13,-58,-32
0.342284,-1,-101,8295,31,-45,-7
0.342422,25,-75,8293,69,-97,-51
0.342561,12,-114,8343,44,-45,12
0.342701,16,-125,8296,63,-97,-39
0.34284,23,-147,8327,19,-20,31
0.34298,32,-147,8303,88,-122,-89
0.343119,24,-111,8268,44,-52,5
0.343258,-6,-169,8287,19,-77,-32
0.343397,67,-118,8248,31,-14,-7
0.343539,29,-157,8279,44,-109,-13
0.343676,66,-140,8320,12,-7,-13
0.343815,32,-93,8321,100,-109,-51
0.343955,6,-79,8325,31,-39,-20
0.344094,36,-96,8294,56,-116,-26
0.344233,84,-75,8311,-38,-33,-13
0.344372,60,-72,8342,82,-90,-32
0.344512,26,-116,8276,31,-39,-39
0.344651,-9,-149,8302,63,-116,-7
0.344792,48,-113,8345,50,-20,-26
0.34493,117,-137,8301,25,-84,-1
0.345069,51,-123,8286,82,-109,-83
0.345208,-13,-96,8324,-19,-7,18
0.345347,-46,-195,8321,94,-128,-45
0.345487,62,-112,8318,25,-58,-1
0.345626,26,-79,8292,63,-58,-26
0.345765,-24,-88,8292,38,-90,-39
0.345905,12,-115,8288,31,-65,-13
0.346044,86,-99,8304,50,-90,-13
0.346183,69,-144,8364,25,-71,-58
0.346323,35,-138,8291,82,-71,-7
0.346462,48,-112,8233,38,-58,-26
0.346601,15,-160,8317,12,-71,12
0.346741,-25,-144,8306,75,-65,-32
0.34688,29,-141,8284,31,-65,-39
0.347019,35,-57,8328,38,-103,-20
0.347159,28,-101,8297,88,-26,-39
0.347298,6,-110,8325,-32,-84,31
0.347437,-14,-113,8333,82,-71,-64
0.347576,17,-90,8297,38,-71,-7
0.347716,-4,-143,8315,38,-71,-32
0.347855,32,-117,8303,50,-52,-32
0.347994,19,-119,8355,44,-84,-20
0.348134,25,-176,8385,38,-90,-7
0.348273,74,-82,8284,44,-52,-32
0.348412,55,-98,8340,69,-90,-20
0.348552,7,-140,8294,-6,-33,5
0.348691,15,-116,8296,94,-122,-51
0.34883,38,-176,8298,12,-39,18
0.348969,54,-117,8245,38,-77,-45
0.349109,44,-115,8320,38,-52,18
0.349248,46,-148,8320,63,-84,-64
0.349387,-12,-124,8262,31,-65,-13
0.349527,52,-104,8283,19,-77,-13
0.349666,-19,-68,8311,69,-90,-45
0.349805,32,-135,8332,38,-77,-7
0.349944,-12,-125,8332,31,-52,-7
0.350084,46,-129,8286,44,-97,-64
0.350223,23,-148,8278,31,-65,18
0.350364,1,-142,8324,88,-90,-70
0.350502,20,-152,8299,-19,-1,31
0.350642,-32,-155,8312,75,-135,-39
0.35078,6,-113,8326,44,-71,-26
0.350921,36,-112,8323,44,-45,-13
0.351059,-3,-144,8351,31,-77,-39
0.351198,-54,-97,8312,38,-58,31
0.35134,45,-94,8292,63,-84,-64
0.351477,38,-118,8256,44,-33,5
0.351616,53,-112,8267,6,-65,-26
0.351757,41,-144,8319,69,-84,-26
0.351895,44,-171,8275,56,-71,-26
0.352034,60,-140,8288,0,-77,5
0.352174,-2,-156,8284,69,-58,-39
0.352314,-27,-194,8349,38,-71,-26
0.352452,-12,-177,8300,31,-65,-7
0.352592,23,-120,8317,56,-84,-39
0.352731,50,-108,8330,38,-71,-13
0.35287,-3,-84,8298,38,-58,-26
0.35301,6,-84,8271,38,-58,-1
0.353149,73,-78,8306,63,-52,-26
0.35329,66,-90,8298,38,-103,-58
0.353427,17,-103,8341,44,-39,5
0.353567,44,-112,8302,56,-90,-20
0.353706,18,-89,8293,25,-45,-39
0.353846,20,-162,8363,75,-103,-32
0.353986,3,-133,8282,0,-65,-7
0.354124,58,-118,8316,44,-58,-13
0.354265,28,-125,8324,50,-71,-39
0.354403,57,-92,8313,31,-71,-13
0.354542,22,-85,8316,19,-71,-20
0.354681,49,-88,8292,38,-52,-13
0.354821,78,-96,8310,50,-84,-26
0.35496,-23,-128,8307,31,-65,-13
0.355099,25,-111,8330,69,-122,-45
0.355239,10,-162,8341,44,-39,-26
0.355378,12,-130,8305,12,-58,-1
0.355517,12,-156,8309,50,-97,-26
0.355656,68,-83,8311,44,-65,-20
0.355796,25,-102,8317,50,-65,-39
0.355935,62,-169,8351,56,-58,12
0.356074,24,-120,8285,6,-65,-45
0.356213,-19,-98,8328,50,-77,-20
0.356353,41,-98,8286,69,-109,-39
0.356492,32,-139,8294,6,-26,31
0.356632,22,-102,8373,63,-90,-58
0.356771,41,-82,8336,56,-77,-32
0.35691,16,-142,8298,12,-33,31
0.357049,39,-149,8296,25,-77,-39
0.357189,-8,-159,8321,75,-90,-64
0.357328,10,-134,8293,25,-39,18
0.357467,51,-92,8320,31,-90,-20
0.357607,40,-90,8344,63,-97,-32
0.357746,28,-103,8284,31,-26,-1
0.357885,-14,-112,8334,12,-97,-39
0.358025,-16,-88,8293,69,-58,-26
0.358164,37,-101,8336,44,-97,-26
0.358303,12,-82,8348,50,-84,-1
0.358444,-3,-86,8288,12,-45,-39
0.358582,-8,-154,8300,56,-97,-13
0.358721,70,-84,8298,44,-45,5
0.358862,49,-129,8308,38,-77,-70
0.359003,48,-158,8302,44,-77,43
0.35914,56,-118,8272,25,-52,-70
0.359278,-1,-126,8361,69,-58,-32
0.359417,26,-132,8399,12,-128,-1
0.359557,20,-104,8300,44,-39,-26
0.359696,0,-87,8308,19,-58,-13
0.359835,-16,-118,8310,100,-71,-45
0.359975,17,-114,8347,6,-90,-13
0.360114,4,-121,8275,75,-71,-7
0.360253,-22,-83,8304,50,-58,-26
0.360393,51,-124,8305,6,-65,-7
0.360534,25,-76,8300,94,-116,-64
0.360671,20,-86,8344,6,-33,12
0.360811,42,-84,8337,44,-90,-39
0.36095,80,-94,8310,-6,-26,-1
0.361089,-12,-110,8341,88,-65,-26
0.361229,11,-152,8306,50,-103,-51
0.361368,35,-134,8300,44,-71,-26
0.361507,60,-103,8285,12,-65,-32
0.361647,1,-169,8300,44,-39,18
0.361787,27,-120,8279,38,-116,-64
0.361925,54,-136,8312,63,-65,18
0.362064,39,-125,8291,38,-71,-64
0.362204,31,-136,8302,56,-71,-13
0.362344,46,-128,8336,0,-71,5
0.362483,63,-151,8261,82,-65,-58
0.362622,56,-112,8374,19,-52,-13
0.362761,-13,-140,8317,44,-90,5
0.3629,-40,-120,8300,69,-77,-83
0.36304,96,-135,8317,12,-33,5
0.363179,35,-91,8327,38,-109,-26
0.363318,14,-148,8372,50,-84,-58
0.363458,43,-133,8305,63,-46,-1
0.363597,13,-150,8258,19,-65,-32
0.363736,12,-127,8264,56,-58,12
0.363876,-4,-135,8295,31,-128,-77
0.364015,36,-165,8338,25,-58,50
0.364154,22,-100,8288,69,-58,-70
0.364294,52,-117,8287,6,-65,12
0.364433,-14,-113,8331,56,-77,-20
0.364572,0,-93,8354,63,-109,-45
0.364712,26,-188,8319,12,-39,-1
0.364851,28,-124,8343,25,-58,-1
0.36499,62,-100,8273,50,-122,-77
0.365129,0,-106,8283,31,-26,24
0.365269,28,-103,8320,63,-97,-26
0.365408,30,-112,8273,25,-84,-32
0.365547,17,-130,8340,50,-26,-13
0.365687,-13,-130,8326,31,-71,-13
0.365826,-4,-108,8305,82,-122,-64
0.365965,17,-124,8266,0,-71,18
0.366105,-3,-147,8291,69,-52,-45
0.366244,45,-94,8333,44,-77,-45
0.366383,40,-76,8294,25,-77,18
0.366522,-33,-110,8322,75,-65,-45
0.366662,-8,-108,8326,31,-71,-7
0.366801,42,-87,8301,38,-52,-20
0.36694,-10,-137,8263,69,-84,-39
0.36708,-46,-154,8286,31,-84,5
0.367219,22,-146,8278,75,-97,-26
0.367358,17,-138,8279,50,-52,-26
0.367498,9,-137,8342,31,-65,-58
0.367637,51,-136,8284,31,-77,24
0.367776,4,-133,8313,44,-77,-58
0.367916,71,-114,8263,44,-65,-13
0.368055,19,-87,8263,63,-84,-1
0.368194,-5,-110,8357,38,-71,-32
0.368333,37,-151,8282,31,-46,-20
0.368475,90,-117,8281,50,-90,-32
0.368612,-2,-172,8289,38,-46,-20
0.368752,23,-164,8284,56,-84,-32
0.368891,31,-115,8298,19,-58,-7
0.36903,56,-111,8292,56,-103,-26
0.369169,39,-126,8332,44,-77,-26
0.369308,29,-149,8308,69,-65,-26
0.369448,46,-120,8285,6,-46,-32
0.369587,54,-161,8315,44,-84,-7
0.369726,34,-79,8286,63,-65,-20
0.369866,68,-166,8315,12,-90,-20
0.370005,71,-144,8300,69,-65,-13
0.370144,78,-119,8304,44,-58,-7
0.370285,65,-99,8273,19,-122,-64
0.370423,16,-152,8261,56,-58,-26
0.370564,-7,-141,8320,38,-39,-13
0.370702,-14,-135,8333,44,-97,-13
0.370841,84,-116,8333,44,-84,-32
0.37098,27,-94,8315,38,-39,-26
0.371121,-5,-124,8278,44,-109,-13
0.371259,5,-95,8295,31,-20,-26
0.371398,54,-109,8317,50,-90,-32
0.371538,64,-85,8284,19,-46,-1
0.371679,-27,-170,8295,82,-77,-20
0.371816,-15,-131,8272,0,-58,-20
0.371955,16,-108,8323,38,-58,-26
0.372095,21,-119,8349,31,-52,-1
0.372234,-12,-110,8303,69,-103,-32
0.372374,37,-133,8335,-19,-26,-26
0.372513,37,-143,8377,75,-77,-20
0.372652,66,-111,8380,12,-52,-7
0.372791,59,-134,8308,75,-90,-32
0.372931,114,-134,8330,25,-52,-20
0.37307,41,-133,8286,44,-84,-20
0.373209,32,-134,8340,69,-65,-13
0.373349,29,-147,8288,19,-71,-20
0.373488,59,-110,8298,44,-90,-20
0.373627,36,-126,8315,38,-26,-1
0.373767,40,-120,8358,75,-122,-77
0.373906,-44,-142,8313,25,-39,37
0.374045,12,-96,8322,38,-58,-13
0.374185,21,-99,8337,75,-90,-58
0.374324,23,-158,8285,12,-46,-1
0.374463,42,-91,8261,69,-109,-45
0.374602,10,-122,8324,56,-46,-32
0.374742,-33,-144,8368,19,-65,37
0.374881,14,-146,8330,63,-71,-51
0.375021,44,-130,8333,31,-90,-45
0.375159,39,-146,8287,63,-58,-20
0.375299,23,-142,8310,0,-84,-13
0.375438,11,-169,8308,63,-26,-7
0.375578,6,-119,8253,56,-116,-20
0.375717,19,-141,8313,38,-26,-39
0.375856,-31,-75,8327,19,-122,-13
0.375996,51,-95,8313,69,-33,-20
0.376135,10,-84,8292,44,-84,-26
0.376274,0,-126,8300,-6,-58,-13
0.376414,16,-104,8288,88,-109,-32
0.376553,-8,-79,8279,6,-39,-20
0.376692,-12,-110,8301,69,-71,5
0.376831,-29,-196,8325,44,-116,-83
0.376971,4,-112,8346,44,-1,37
0.37711,-20,-131,8326,63,-109,-70
0.377249,-19,-93,8301,44,-58,12
0.377389,28,-141,8317,25,-90,-13
0.377528,21,-153,8301,82,-77,-32
0.377667,16,-73,8302,56,-65,-39
0.377806,18,-149,8305,50,-90,-26
0.377946,-20,-168,8281,25,-52,24
0.378085,10,-119,8300,25,-90,-77
0.378225,64,-105,8287,94,-33,5
0.378365,55,-91,8318,-13,-84,-39
0.378505,61,-108,8353,88,-103,-1
0.378642,8,-151,8281,0,-20,-39
0.378782,6,-132,8312,119,-109,-39
0.378921,67,-94,8276,-6,-45,-7
0.37906,32,-96,8282,75,-77,12
0.3792,19,-93,8304,44,-84,-70
0.379339,32,-58,8320,38,-52,12
0.379478,12,-134,8300,69,-58,-70
0.379617,55,-80,8294,12,-52,37
0.379757,25,-117,8304,94,-116,-51
0.379896,20,-122,8292,19,-77,-20
0.380035,13,-156,8322,25,-20,12
0.380175,10,-75,8293,19,-97,-32
0.380314,-31,-78,8291,113,-97,-51
0.380453,21,-118,8308,-13,-52,18
0.380594,-2,-165,8272,50,-84,-32
0.380734,-50,-94,8299,50,-65,-32
0.380872,47,-160,8342,50,-77,-26
0.381011,54,-112,8277,31,-77,-7
0.38115,83,-95,8292,19,-71,-1
0.381289,35,-77,8288,75,-58,-32
0.381428,39,-103,8352,44,-84,-51
0.381568,61,-132,8296,19,-45,12
0.381707,25,-115,8287,69,-90,-58
0.381846,-4,-118,8289,25,-45,24
0.381986,32,-113,8288,50,-84,-39
0.382125,3,-120,8282,56,-84,-7
0.382264,11,-174,8347,31,-97,-51
0.382404,21,-135,8357,50,-65,-7
0.382543,36,-108,8312,19,-52,-13
0.382682,1,-135,8328,38,-52,-13
0.382822,-12,-177,8331,63,-116,-45
0.382961,9,-121,8310,12,-65,-13
0.3831,82,-81,8284,63,-77,-32
0.383239,59,-112,8294,25,-58,5
0.383379,47,-100,8248,25,-58,-20
0.383518,76,-124,8273,75,-77,-51
0.383657,25,-126,8289,12,-77,-1
0.383797,19,-126,8272,50,-26,-32
0.383936,32,-132,8294,50,-97,-26
0.384075,42,-148,8277,-6,-26,18
0.384215,-26,-119,8360,75,-141,-77
0.384354,-16,-150,8281,38,-20,12
0.384493,8,-140,8292,44,-97,-58
0.384633,6,-162,8276,56,-45,-7
0.384772,16,-155,8319,50,-77,-13
0.384911,57,-123,8337,31,-71,-26
0.385051,53,-82,8275,38,-71,-20
0.38519,-16,-127,8323,63,-58,-26
0.385329,83,-171,8292,31,-77,-20
0.385471,31,-181,8269,44,-77,-26
0.385608,1,-105,8288,69,-116,-20
0.385747,46,-149,8313,0,-14,-1
0.385886,37,-167,8298,69,-97,-58
0.386026,10,-93,8285,25,-65,18
0.386165,22,-99,8290,44,-65,-58
0.386304,-2,-118,8310,44,-58,-7
0.386443,-3,-112,8247,50,-84,-1
0.386583,-15,-160,8260,69,-52,-39
0.386722,-2,-142,8276,31,-109,-32
0.386862,28,-128,8322,44,-65,5
0.387001,24,-126,8283,56,-84,-39
0.38714,52,-171,8294,-13,-14,18
0.387279,-52,-147,8314,107,-77,-64
0.387419,-8,-138,8331,0,-84,-7
0.387558,-4,-190,8326,82,-58,-26
0.387697,52,-179,8295,19,-52,-20
0.387837,44,-186,8304,19,-77,-7
0.387976,34,-152,8252,63,-90,-39
0.388115,13,-116,8268,44,-58,18
0.388255,49,-141,8286,63,-77,-83
0.388394,8,-109,8336,-6,-39,31
0.388533,-21,-148,8275,82,-71,-26
0.388673,18,-131,8328,25,-97,-32
0.388812,-36,-121,8287,31,-39,-7
0.388951,74,-94,8296,44,-77,-39
0.38909,48,-136,8255,63,-77,-26
0.38923,42,-108,8339,44,-103,-7
0.389369,-10,-110,8374,38,-77,-51
0.389508,-28,-105,8410,12,-33,24
0.389648,9,-143,8313,63,-71,-83
0.389787,13,-151,8291,50,-103,31
0.389926,-22,-126,8334,19,-58,-39
0.390066,88,-142,8299,56,-109,-51
0.390206,73,-118,8318,56,-26,18
0.390344,14,-86,8274,38,-109,-58
0.390484,44,-126,8292,63,-45,24
0.390623,44,-112,8320,25,-77,-51
0.390762,91,-100,8292,50,-71,-13
0.390902,-13,-114,8298,50,-84,-58
0.391041,6,-101,8310,50,-97,18
0.391184,67,-110,8310,6,-33,-13
0.391319,8,-163,8372,63,-109,-51
0.391459,-6,-105,8346,50,-71,-26
0.391598,9,-133,8332,50,-33,18
0.391737,35,-165,8344,38,-109,-64
0.391877,55,-135,8332,63,-45,31
0.392016,37,-117,8312,31,-84,-64
0.392155,32,-123,8317,44,-90,-7
0.392295,-25,-87,8283,56,-90,-58
0.392434,18,-118,8283,6,-20,18
0.392573,52,-98,8295,63,-116,-26
0.392713,41,-129,8290,63,-77,-39
0.392852,12,-106,8346,50,-65,-26
0.392991,6,-66,8305,25,-52,-1
0.39313,7,-112,8315,44,-84,-83
0.39327,-20,-152,8273,25,-65,50
0.393409,7,-133,8319,94,-90,-64
0.393548,48,-77,8307,-25,-52,-13
0.393688,-24,-168,8319,82,-77,-26
0.393827,-14,-152,8316,25,-65,24
0.393966,-41,-163,8336,50,-45,-83
0.394106,-7,-167,8345,50,-116,-13
0.394245,22,-121,8348,19,-52,-1
0.394384,37,-76,8297,38,-71,5
0.394524,12,-121,8335,88,-116,-64
0.394663,38,-102,8295,12,-52,12
0.394802,14,-120,8283,69,-90,-45
0.394942,17,-176,8311,19,-58,-39
0.395081,7,-120,8307,63,-65,12
0.39522,4,-131,8355,19,-77,-51
0.395359,17,-117,8344,69,-84,-1
0.395499,7,-158,8262,31,-58,-32
0.395638,-11,-134,8289,12,-77,5
0.395777,16,-87,8298,82,-71,-58
0.395917,35,-141,8283,6,-46,18
0.396056,1,-125,8306,82,-90,-39
0.396195,28,-172,8322,25,-65,-26
0.396338,33,-112,8293,63,-90,-13
0.396474,19,-99,8346,6,-52,-26
0.396613,25,-128,8321,88,-65,-20
0.396752,-61,-67,8333,38,-84,-45
0.396892,32,-136,8354,56,-58,31
0.397031,21,-105,8302,50,-103,-64
0.39717,-37,-88,8313,50,-26,12
0.39731,-4,-114,8323,38,-116,-45
0.397449,22,-61,8291,50,-71,-39
0.397588,0,-143,8306,6,-52,-7
0.397728,41,-124,8286,100,-116,-20
0.397867,43,-120,8354,44,-7,-7
0.398006,17,-121,8295,0,-116,-58
0.398146,-9,-115,8295,100,-65,18
0.398285,-4,-130,8300,0,-58,-20
0.398424,-10,-103,8306,82,-84,-51
0.398564,-11,-95,8304,44,-52,5
0.398703,-77,-117,8304,6,-52,-58
0.398842,-8,-128,8281,94,-141,-7
0.398981,85,-104,8309,38,-39,-64
0.399121,36,-104,8296,44,-71,43
0.39926,-19,-120,8343,44,-103,-70
0.399399,36,-109,8323,6,-14,24
0.399539,17,-122,8291,107,-135,-83
0.399678,35,-96,8311,19,-52,-1
0.399817,-8,-102,8281,25,-84,-13
0.399957,28,-110,8265,63,-46,-13
0.400096,-8,-77,8272,50,-103,-32
0.400235,16,-135,8318,0,-39,5
0.400375,12,-95,8342,82,-90,-64
0.400514,44,-120,8311,12,-39,24
0.400653,10,-115,8300,50,-103,-64
0.400792,10,-132,8354,38,-58,-1
0.400932,42,-128,8295,94,-116,-64
0.401071,2,-130,8349,-19,-46,18
0.40121,14,-101,8384,31,-39,-13
0.40135,36,-112,8269,88,-122,-26
0.401489,8,-125,8311,0,-33,-39
0.401628,38,-100,8323,56,-97,18
0.401768,-26,-139,8302,44,-84,-39
0.401907,18,-118,8322,25,-58,-32
0.402046,41,-133,8315,56,-65,-26
0.402186,34,-139,8284,44,-77,-13
0.402325,53,-92,8347,50,-71,-7
0.402464,68,-169,8322,50,-52,-32
0.402603,-3,-166,8314,12,-77,-13
0.402743,41,-142,8315,75,-65,-20
0.402882,17,-134,8280,25,-97,-45
0.403021,25,-147,8312,19,-39,18
0.403161,26,-109,8262,88,-90,-51
0.403301,29,-105,8339,-13,-65,-7
0.403439,70,-109,8331,126,-65,-32
0.403582,81,-117,8366,31,-90,-39
0.403719,35,-155,8317,19,-26,-13
0.403857,33,-198,8271,6,-77,24
0.403996,-20,-160,8331,88,-84,-58
0.404138,61,-142,8226,31,-84,-39
0.404275,95,-143,8259,38,-46,-7
0.404415,-11,-126,8329,6,-90,-20
0.404554,2,-127,8328,75,-26,-32
0.4047,28,-113,8296,19,-103,31
0.404833,29,-111,8315,25,-65,-51
0.404972,84,-106,8319,82,-65,-39
0.405113,53,-122,8326,-6,-39,-1
0.40525,18,-205,8283,69,-84,-26
0.40539,58,-123,8300,38,-90,-51
0.405529,29,-140,8317,31,-33,37
0.405668,62,-119,8276,82,-103,-83
0.405808,6,-112,8272,0,-46,12
0.405947,64,-113,8259,94,-77,-39
0.406086,34,-76,8285,38,-97,-39
0.406226,74,-94,8294,12,-52,12
0.406365,23,-91,8290,63,-84,-45
0.406504,57,-130,8269,63,-52,-20
0.406643,13,-153,8302,50,-77,-20
0.406783,32,-87,8328,-6,-39,5
0.406922,62,-106,8322,88,-122,-58
0.407061,49,-141,8263,12,-20,-7
0.407201,-17,-116,8307,56,-103,-51
0.40734,16,-133,8269,56,-52,-1
0.407479,53,-112,8297,12,-77,-7
0.407618,46,-84,8295,69,-97,-45
0.407758,34,-78,8272,31,-14,-7
0.407897,12,-95,8278,50,-109,-32
0.408036,19,-97,8310,0,-14,-20
0.408176,39,-139,8326,82,-109,-20
0.408315,25,-101,8287,25,-52,5
0.408454,37,-135,8320,44,-65,-45
0.408594,47,-98,8379,82,-71,-32
0.408733,5,-63,8306,6,-65,-26
0.408872,46,-123,8299,69,-90,-13
0.409012,72,-144,8314,25,-58,-1
0.409152,38,-150,8311,19,-77,-39
0.40929,40,-147,8333,82,-97,-7
0.409429,51,-127,8288,56,-52,-64
0.409569,70,-117,8254,44,-71,24
0.409709,69,-128,8257,44,-58,-64
0.409847,50,-129,8303,12,-84,12
0.409988,11,-127,8328,56,-52,-13
0.410127,4,-106,8363,19,-65,-45
0.410266,6,-57,8333,38,-97,-32
0.410405,-37,-109,8343,44,-58,24
0.410544,62,-119,8316,75,-77,-51
0.410683,34,-83,8232,0,-26,-7
0.410823,47,-109,8249,75,-97,-32
0.410962,-6,-147,8267,38,-77,-13
0.411101,80,-120,8314,69,-77,-20
0.411241,21,-85,8318,38,-58,-20
0.41138,32,-91,8275,69,-90,-1
0.411519,31,-99,8283,-6,-58,-58
0.411659,19,-118,8244,75,-77,-7
0.411798,1,-146,8286,38,-46,-13
0.411937,32,-120,8319,25,-71,-26
0.412077,19,-140,8338,75,-65,-20
0.412216,-23,-87,8313,19,-116,-32
0.412355,2,-92,8317,82,-65,-20
0.412494,31,-142,8292,6,-14,5
0.412634,24,-78,8284,44,-103,-20
0.412773,59,-94,8317,63,-90,-64
0.412913,5,-147,8329,12,-58,5
0.413052,-3,-103,8275,63,-58,31
0.413191,6,-148,8298,38,-58,-89
0.41333,14,-97,8286,63,-116,37
0.41347,15,-133,8286,38,-58,-58
0.413609,19,-168,8299,38,-90,-32
0.413748,40,-157,8314,38,-14,62
0.413888,45,-110,8345,50,-77,-51
0.414027,43,-100,8291,63,-90,-58
0.414166,54,-109,8249,63,-71,12
0.414306,51,-62,8317,-6,-26,-20
0.414445,39,-84,8277,94,-109,-51
0.414585,60,-100,8332,-6,-45,-7
0.414723,36,-78,8316,82,-90,-13
0.414866,18,-79,8301,19,-58,-32
0.415003,96,-119,8284,44,-45,-39
0.415141,-28,-137,8325,31,-97,-1
0.415281,1,-134,8306,63,-77,-32
0.41542,30,-120,8326,25,-52,5
0.41556,46,-130,8289,31,-84,-39
0.415699,20,-118,8290,82,-90,-26
0.415838,61,-81,8315,19,-33,-1
0.415977,47,-137,8308,31,-90,-39
0.416118,16,-126,8275,56,-77,-1
0.416256,43,-99,8378,-6,-26,-20
0.416395,61,-110,8314,113,-128,-58
0.416534,32,-127,8327,6,-14,12
0.416674,-6,-148,8303,50,-116,-45
0.416815,-1,-130,8326,82,-65,-13
0.416952,53,-116,8342,-6,-45,-20
0.417092,56,-131,8318,63,-97,-39
0.417232,53,-133,8276,6,-52,-7
0.41737,25,-108,8312,82,-109,-45
0.41751,-8,-147,8334,44,-14,-1
0.417649,68,-104,8322,12,-71,-39
0.417788,111,-132,8268,56,-122,-20
0.417928,-1,-174,8294,44,-26,-26
0.418068,77,-69,8287,31,-77,-20
0.418206,11,-142,8265,69,-77,-26
0.418345,15,-145,8281,-6,-65,-1
0.418485,37,-134,8257,50,-77,-51
0.418626,1,-148,8313,56,-58,37
0.418763,14,-76,8290,44,-77,-51
0.418905,10,-120,8351,19,-58,-20
0.419043,-13,-108,8333,56,-109,-32
0.419181,-1,-97,8330,38,-58,-13
0.41932,46,-116,8288,69,-65,-13
0.41946,60,-121,8266,19,-71,-13
0.419599,40,-157,8283,44,-84,-32
0.419739,56,-103,8302,38,-58,-7
0.419878,14,-144,8320,44,-97,-20
0.420017,20,-132,8282,38,-20,-13
0.420158,20,-123,8343,69,-103,-1
0.420296,65,-93,8298,38,-71,-77
0.420435,43,-110,8284,19,-52,12
0.420574,-36,-144,8307,50,-65,-26
0.420714,-24,-150,8266,75,-45,-26
0.420853,39,-131,8289,25,-109,-7
0.420993,12,-122,8295,63,-77,-45
0.421133,37,-131,8275,19,-45,-1
0.421271,84,-92,8280,19,-52,-1
0.42141,83,-82,8296,107,-97,-51
0.42155,3,-145,8311,-13,-45,-7
0.42169,13,-157,8337,69,-84,-1
0.421828,34,-72,8303,50,-52,-58
0.421968,36,-129,8327,31,-58,-7
0.422107,96,-92,8330,44,-71,5
0.422246,65,-94,8310,56,-52,-26
0.422388,67,-143,8289,25,-52,-26
0.422525,1,-189,8269,44,-77,-26
0.422665,63,-116,8323,38,-77,-13
0.422804,82,-122,8313,56,-33,-39
0.422943,62,-97,8323,31,-103,-1
0.423083,-8,-114,8321,75,-77,-45
0.423221,21,-107,8290,6,-39,-26
0.423361,53,-100,8263,50,-65,24
0.4235,36,-38,8283,44,-90,-45
0.423639,-9,-144,8308,31,-39,5
0.423781,20,-100,8303,69,-90,-51
0.423918,8,-83,8337,31,-84,5
0.424057,11,-64,8318,50,-39,-32
0.424197,46,-127,8317,0,-90,-13
0.42434,74,-128,8255,69,-77,-20
0.424477,12,-128,8273,56,-52,-64
0.424614,-10,-165,8251,6,-52,-7
0.424755,25,-150,8283,38,-77,12
0.424893,17,-145,8288,69,-58,-39
0.425032,36,-128,8299,31,-90,-20
0.425172,1,-113,8327,38,-39,-1
0.425311,-6,-113,8308,50,-90,-32
0.42545,5,-150,8303,44,-90,-32
0.42559,6,-125,8328,69,-65,-26
0.425729,43,-120,8352,0,-45,12
0.425868,1,-159,8360,50,-71,-39
0.426008,7,-151,8297,25,-97,-20
0.426147,14,-143,8338,82,-58,-26
0.426286,18,-108,8327,25,-39,-7
0.426426,36,-101,8290,50,-103,-32
0.426565,10,-114,8291,31,-77,-20
0.426704,-26,-120,8327,63,-58,-13
0.426843,36,-86,8308,31,-84,-32
0.426983,39,-121,8252,44,-71,-26
0.427122,13,-142,8298,44,-58,37
0.427261,12,-117,8318,50,-97,-96
0.4274,31,-123,8280,0,-39,62
0.427541,18,-148,8311,75,-77,-70
0.42768,16,-120,8286,63,-90,-26
0.427819,15,-73,8246,19,-71,-7
0.427958,34,-66,8271,88,-77,-1
0.428099,-19,-171,8335,19,-45,-45
0.428236,33,-103,8283,56,-128,-7
0.428376,19,-141,8327,25,-1,-45
0.428515,4,-135,8283,75,-109,18
0.428654,7,-167,8320,0,-33,-26
0.428793,27,-101,8275,88,-103,-64
0.428933,63,-152,8275,6,-45,12
0.429072,34,-136,8270,63,-90,-32
0.429212,52,-102,8306,0,-77,-1
0.429352,-11,-142,8370,69,-90,-20
0.429491,-4,-86,8344,19,-39,-26
0.429629,85,-83,8252,82,-90,-32
0.429769,41,-65,8333,50,-71,-13
0.42991,38,-110,8321,19,-77,-1
0.430047,-6,-103,8354,44,-58,-26
0.430187,1,-146,8334,50,-77,-20
0.430326,2,-128,8324,0,-58,-7
0.430465,37,-110,8315,69,-103,-13
0.430606,45,-119,8300,12,-14,-20
0.430744,-2,-101,8296,63,-65,-26
0.430885,17,-94,8275,56,-97,-32
0.431022,-28,-104,8280,19,-39,-20
0.431162,7,-102,8291,50,-90,-26
0.431301,76,-138,8279,56,-39,-13
0.431441,31,-93,8302,25,-65,-45
0.43158,67,-111,8324,75,-77,-20
0.431719,-6,-131,8319,12,-77,5
0.43186,7,-162,8330,56,-65,-32
0.432006,32,-99,8315,50,-65,-26
0.432137,47,-101,8294,25,-90,-13
0.432276,42,-131,8346,38,-52,-13
0.432416,36,-151,8331,63,-65,-13
0.432555,16,-132,8290,38,-103,-64
0.432696,-13,-169,8316,19,-7,31
0.432834,53,-152,8265,31,-97,-45
0.432973,54,-131,8346,44,-84,-7
0.433114,45,-94,8317,44,-58,-32
0.433252,31,-119,8310,19,-77,-20
0.433391,-24,-86,8269,12,-26,-20
0.43353,40,-114,8299,75,-116,-7
0.43367,74,-145,8299,31,-77,-32
0.433809,88,-123,8320,31,-26,-32
0.433948,35,-127,8299,38,-103,-1
0.434088,12,-116,8303,63,-77,-39
0.434227,-8,-133,8278,12,-58,-20
0.434366,36,-98,8255,75,-45,-26
0.434505,38,-115,8326,-6,-52,12
0.434645,16,-159,8305,56,-109,-70
0.434784,15,-102,8278,88,-65,24
0.434923,-8,-68,8288,25,-45,-58
0.435063,-60,-147,8280,38,-84,-32
0.435202,11,-184,8314,63,-90,-1
0.435341,72,-141,8260,12,-39,-26
0.435481,26,-116,8326,56,-84,-13
0.43562,52,-122,8351,56,-77,-51
0.435759,7,-132,8308,50,-58,12
0.435899,-27,-170,8325,38,-52,-26
0.436038,37,-144,8284,69,-103,-32
0.436177,80,-97,8310,0,-33,-13
0.436316,41,-81,8332,63,-71,-39
0.436456,73,-103,8269,31,-58,5
0.436595,53,-146,8286,50,-90,-39
0.436734,-1,-106,8252,25,-65,-7
0.436874,22,-133,8247,75,-45,-26
0.437013,16,-113,8314,31,-90,5
0.437152,23,-104,8355,25,-71,-32
0.437291,53,-78,8321,69,-77,-20
0.437431,10,-154,8286,25,-52,-20
0.437572,39,-118,8321,38,-71,-32
0.43771,-21,-143,8273,38,-65,-7
0.43785,-2,-130,8293,6,-71,-39
0.437988,20,-109,8317,113,-84,-7
0.438128,41,-169,8300,-19,-33,-13
0.438267,14,-96,8289,107,-90,-64
0.438406,9,-90,8335,6,-90,12
0.438545,19,-85,8330,82,-52,-39
0.438684,92,-96,8310,-32,-39,12
0.438824,36,-114,8330,119,-116,-64
0.438963,57,-168,8279,-13,-52,5
0.439103,11,-148,8244,31,-65,-13
0.439242,12,-102,8309,38,-52,-51
0.439381,-28,-128,8285,56,-97,18
0.439521,25,-112,8321,19,-77,-64
0.43966,40,-117,8298,56,-20,18
0.439799,52,-144,8325,50,-116,-64
0.439938,51,-138,8339,38,-52,-13
0.440079,25,-145,8347,63,-58,-26
0.440217,8,-147,8322,-6,-84,-1
0.440356,16,-108,8325,50,-45,-32
0.440496,54,-89,8263,38,-84,-1
0.440635,48,-132,8234,69,-58,-51
0.440776,36,-160,8280,6,-65,-13
0.440913,-33,-116,8294,44,-77,-13
0.441053,53,-126,8337,44,-52,-32
0.441192,76,-95,8314,19,-65,-26
0.441333,53,-103,8311,88,-65,12
0.441471,5,-152,8288,19,-77,-58
0.44161,20,-111,8279,69,-77,12
0.44175,35,-109,8277,31,-90,-51
0.441889,21,-136,8254,63,-26,-13
0.442028,33,-133,8304,19,-116,-20
0.442167,31,-116,8318,50,-39,-1
0.442312,24,-126,8297,44,-84,-45
0.442446,15,-121,8303,44,-97,-20
0.442585,-2,-113,8326,31,-14,-13
0.442725,14,-87,8319,56,-141,-32
0.442864,35,-156,8317,25,-26,-32
0.443004,50,-157,8322,31,-84,-20
0.443142,-25,-132,8306,56,-45,-32
0.443282,43,-164,8344,19,-84,5
0.443422,28,-123,8307,63,-52,-32
0.44356,94,-52,8275,6,-84,-39
0.4437,79,-101,8291,75,-45,-1
0.443839,44,-54,8333,12,-116,-39
0.443978,8,-184,8297,69,-58,-26
0.444118,19,-149,8286,31,-58,-32
0.444257,6,-122,8289,38,-65,12
0.444396,14,-123,8299,50,-71,-45
0.444536,36,-152,8321,50,-71,-1
0.444675,8,-117,8277,44,-84,-32
0.444814,-64,-123,8280,25,-45,-13
0.444954,38,-120,8310,50,-52,-26
0.445093,48,-79,8336,44,-109,-20
0.445232,38,-128,8342,69,-71,-45
0.445372,13,-161,8273,6,-52,-26
0.445511,-30,-142,8290,38,-58,37
0.44565,51,-136,8296,50,-97,-45
0.44579,2,-115,8308,69,-84,-58
0.445929,66,-88,8302,0,-58,-1
0.446068,61,-125,8326,44,-65,12
0.446208,47,-123,8286,56,-77,-39
0.446347,48,-150,8259,31,-97,-20
0.446486,26,-97,8289,94,-84,-58
0.446625,1,-135,8355,-6,-45,18
0.446765,42,-174,8329,69,-45,-26
0.446904,75,-119,8350,31,-77,-20
0.447043,77,-52,8316,75,-71,-45
0.447183,68,-101,8285,-19,-52,24
0.447322,21,-190,8318,75,-77,-45
0.447462,27,-116,8288,50,-58,-7
0.447601,18,-152,8292,44,-71,-39
0.44774,50,-96,8303,44,-90,12
0.447879,90,-112,8272,25,-52,-13
0.448018,46,-92,8310,50,-71,-70
0.448158,21,-103,8352,19,-52,5
0.448297,66,-89,8349,88,-90,-39
0.448436,47,-133,8256,25,-58,5
0.448575,7,-159,8300,75,-71,-39
0.448715,28,-127,8296,12,-39,-13
0.448854,22,-108,8243,38,-103,-32
0.448993,-17,-139,8288,25,-65,5
0.449133,10,-120,8293,94,-103,-58
0.449272,43,-114,8327,19,-58,12
0.449412,46,-147,8298,31,-71,-45
0.449551,43,-160,8304,69,-77,5
0.44969,56,-99,8270,25,-58,-26
0.449833,23,-127,8291,56,-97,-32
0.449969,38,-74,8285,25,-39,12
0.450108,13,-120,8372,50,-77,-51
0.450247,12,-138,8285,19,-45,-26
0.450387,99,-155,8267,75,-109,-20
0.450526,55,-145,8276,19,-45,-20
0.450665,42,-119,8246,56,-71,-20
0.450805,68,-102,8274,19,-77,-20
0.450944,16,-122,8293,56,-45,-20
0.451083,41,-120,8324,50,-65,-45
0.451223,-6,-150,8328,25,-39,18
0.451362,15,-143,8337,12,-77,-20
0.451502,50,-148,8330,44,-77,-58
0.45164,45,-85,8248,56,-77,-1
0.45178,33,-132,8224,6,-45,-26
0.451919,-9,-142,8297,88,-71,-7
0.452058,29,-140,8344,38,-77,-45
0.452198,41,-105,8256,19,-58,-7
0.45234,24,-87,8259,31,-45,5
0.452478,22,-153,8362,50,-122,-51
0.452616,6,-165,8353,56,-58,-20
0.452755,42,-134,8295,31,-65,-13
0.452894,2,-122,8332,44,-71,-51
0.453034,13,-166,8318,75,-58,5
0.453174,33,-120,8268,6,-52,-13
0.453312,9,-134,8282,44,-77,-32
0.453453,13,-147,8286,25,-39,-7
0.453591,40,-138,8337,107,-116,-58
0.45373,80,-87,8343,-25,-39,18
0.45387,66,-140,8278,88,-77,-20
0.454009,-3,-106,8296,25,-84,-32
0.454148,6,-105,8378,63,-52,-51
0.454287,111,-87,8329,31,-90,-7
0.454427,38,-73,8296,38,-45,-13
0.454566,37,-122,8337,44,-90,-32
0.454705,57,-110,8301,31,-103,-20
0.454845,59,-65,8315,56,-14,-26
0.454984,33,-131,8345,50,-122,-13
0.455123,-41,-111,8300,-19,-20,-20
0.455263,26,-157,8314,94,-90,-26
0.455402,54,-125,8302,31,-77,-1
0.455544,44,-105,8282,50,-77,-64
0.455681,17,-104,8382,19,-26,-1
0.45582,41,-116,8367,38,-135,-32
0.455959,100,-122,8296,69,-39,-1
0.456099,11,-87,8331,12,-71,-51
0.456238,-5,-135,8300,63,-77,-7
0.456377,61,-96,8300,38,-52,-45
0.456516,-9,-115,8316,38,-103,24
0.456656,6,-113,8320,25,-33,-26
0.456795,18,-130,8333,75,-109,-77
0.456934,42,-172,8358,19,-58,18
0.457074,43,-78,8275,56,-77,-64
0.457213,-40,-106,8263,25,-58,-1
0.457352,22,-119,8312,38,-84,-7
0.457491,53,-123,8297,50,-58,-32
0.457631,26,-99,8338,50,-77,-32
0.457772,53,-100,8310,19,-65,-1
0.45791,60,-112,8342,88,-77,-26
0.458049,30,-141,8351,25,-77,-20
0.458188,-7,-110,8291,25,-58,-13
0.458327,35,-98,8376,38,-65,-26
0.458466,-3,-72,8381,88,-65,-20
0.458606,42,-65,8307,0,-84,-26
0.458745,44,-110,8269,94,-52,-20
0.458884,-20,-89,8294,-13,-65,-26
0.459024,13,-101,8320,82,-84,-26
0.459163,-9,-164,8353,31,-71,-13
0.459303,17,-101,8324,44,-97,-26
0.459442,-8,-92,8308,25,-52,-32
0.459581,30,-129,8331,38,-71,-7
0.459721,63,-123,8266,50,-77,-32
0.459861,42,-141,8304,50,-77,-20
0.459999,-1,-118,8291,44,-77,-1
0.460138,27,-152,8302,25,-33,-32
0.460283,48,-162,8271,44,-103,5
0.460417,30,-137,8268,38,-84,-39
0.460556,15,-107,8308,44,-33,-26
0.460697,15,-145,8324,44,-103,-7
0.460835,50,-152,8330,31,-65,-32
0.460975,80,-152,8311,44,-77,-26
0.461114,11,-118,8292,38,-26,-1
0.461253,34,-129,8376,31,-97,-58
0.461392,53,-71,8318,63,-33,12
0.461532,88,-139,8296,19,-122,-45
0.461671,77,-128,8319,50,-33,-32
0.46181,6,-110,8294,56,-97,5
0.461949,31,-161,8314,12,-58,-26
0.462089,-5,-109,8265,82,-84,-26
0.462228,15,-104,8295,25,-84,-51
0.462367,2,-92,8372,56,-26,-20
0.462507,-7,-62,8271,38,-90,-39
0.462646,-5,-92,8285,12,-58,31
0.462785,0,-142,8255,69,-71,-58
0.462924,74,-176,8209,38,-90,-7
0.463064,55,-107,8276,63,-71,-58
0.463203,41,-75,8282,6,-33,37
0.463342,-8,-87,8352,82,-109,-51
0.463483,10,-96,8282,44,-77,-7
0.463621,-9,-116,8290,31,-45,-13
0.46376,-16,-104,8319,38,-65,-51
0.4639,8,-135,8309,38,-65,-1
0.464039,40,-133,8332,63,-65,-20
0.46418,39,-129,8295,56,-97,-39
0.464318,11,-183,8286,38,-33,5
0.464459,72,-103,8303,19,-103,-20
0.464596,53,-90,8329,44,-58,-39
0.464735,21,-120,8300,44,-71,31
0.464875,12,-143,8298,56,-52,-64
0.465014,62,-138,8278,19,-71,-7
0.465153,1,-111,8328,50,-52,-26
0.465293,2,-162,8305,56,-84,-13
0.465432,1,-134,8324,69,-116,-51
0.465572,6,-104,8311,6,-65,-7
0.465711,35,-93,8286,44,-52,5
0.46585,-26,-129,8262,56,-77,-32
0.465989,55,-124,8267,31,-65,-13
0.466129,10,-165,8302,63,-71,-32
0.466268,-52,-135,8278,75,-84,-13
0.466407,18,-134,8296,25,-39,-32
0.466547,44,-106,8305,75,-122,-45
0.466686,6,-141,8276,25,-45,18
0.466825,88,-92,8264,94,-65,-51
0.466964,54,-106,8279,31,-71,-26
0.467104,31,-103,8285,19,-45,-7
0.467243,41,-163,8323,44,-77,-39
0.467383,-5,-76,8284,25,-58,24
0.467523,-17,-112,8333,69,-103,-89
0.467661,71,-157,8291,6,-39,18
0.4678,19,-100,8376,75,-65,-20
0.467941,32,-162,8382,50,-128,-32
0.468079,2,-103,8339,19,-7,-13
0.468218,-24,-119,8293,75,-97,-39
0.468357,17,-106,8264,-6,-39,12
0.468497,49,-114,8274,88,-84,-39
0.468636,27,-85,8348,25,-116,-26
0.468775,-13,-86,8340,38,-52,-1
0.468915,53,-100,8291,31,-58,-32
0.469054,56,-133,8305,56,-103,-32
0.469193,2,-78,8294,44,-71,-7
0.469333,17,-103,8320,25,-45,-1
0.469472,-56,-160,8334,75,-71,-45
0.469611,8,-132,8349,12,-84,-13
0.469752,22,-117,8345,50,-52,-7
0.469892,49,-118,8334,50,-84,-26
0.470035,36,-142,8306,44,-77,-39
0.470168,32,-154,8336,31,-65,12
0.470308,23,-111,8279,44,-71,-32
0.470447,46,-65,8292,31,-33,-7
0.470586,54,-84,8326,25,-103,-51
0.470732,45,-106,8379,38,-58,5
0.470865,79,-151,8380,38,-52,-45
0.471005,48,-99,8272,75,-90,-39
0.471144,53,-90,8306,-13,-26,12
0.471283,34,-115,8319,82,-103,-32
0.471422,42,-128,8303,31,-71,-39
0.471562,19,-132,8272,31,-39,12
0.471701,23,-139,8279,56,-65,-58
0.47184,65,-138,8277,31,-71,12
0.47198,43,-140,8276,69,-90,-64
0.472119,53,-111,8303,31,-58,24
0.472258,65,-132,8285,38,-77,-32
0.472398,9,-148,8318,25,-84,-7
0.472537,35,-137,8305,63,-45,-26
0.472676,-1,-124,8291,56,-97,-39
0.472816,-1,-122,8323,12,-33,-13
0.472955,38,-91,8282,38,-90,-32
0.473094,60,-105,8301,75,-65,-45
0.473234,42,-164,8321,31,-84,-7
0.473373,48,-137,8326,50,-39,-1
0.473513,26,-116,8325,25,-103,-13
0.473651,-4,-148,8285,69,-58,-39
0.473791,34,-152,8300,25,-45,5
0.47393,45,-174,8298,75,-77,-39
0.474069,49,-108,8292,25,-109,-20
0.474209,-2,-103,8271,31,-33,-32
0.474348,13,-101,8318,31,-77,-45
0.474487,10,-101,8296,94,-116,-13
0.474627,18,-137,8302,-19,-33,-13
0.474766,4,-139,8278,69,-97,-26
0.474905,52,-68,8260,44,-71,-20
0.475044,39,-156,8303,56,-65,-32
0.475184,8,-100,8305,0,-65,5
0.475323,28,-109,8294,107,-103,-45
0.475462,28,-100,8324,-32,-26,-7
0.475602,35,-156,8349,119,-97,-51
0.475741,40,-124,8330,25,-84,-1
0.47588,47,-91,8272,19,-58,-45
0.47602,12,-48,8286,88,-52,12
0.476159,68,-105,8303,19,-109,-51
0.476298,5,-124,8314,63,-52,-13
0.476437,46,-160,8294,19,-52,-32
0.476577,17,-113,8329,88,-97,-20
0.476716,38,-90,8365,25,-45,-7
0.476856,22,-109,8329,50,-77,-39
0.476995,18,-101,8281,56,-77,-45
0.477134,8,-146,8341,12,-65,37
0.477274,4,-180,8301,31,-52,-58
0.477413,-42,-159,8310,88,-84,-32
0.477553,44,-167,8306,38,-45,12
0.477692,-3,-143,8332,25,-77,-32
0.477831,53,-152,8354,63,-77,-39
0.477971,25,-127,8329,25,-58,-1
0.478109,-24,-112,8254,19,-58,-7
0.47825,-18,-132,8293,63,-97,-45
0.478388,-18,-100,8318,75,-52,-7
0.478527,24,-130,8270,0,-58,-7
0.478666,44,-90,8303,50,-109,5
0.478806,39,-109,8319,56,-33,-70
0.478945,18,-118,8287,56,-77,24
0.479084,-1,-88,8334,50,-103,-64
0.479224,22,-43,8343,25,-58,-20
0.479363,36,-93,8295,6,-52,37
0.479504,11,-152,8307,94,-103,-83
0.479642,30,-83,8293,12,-7,-7
0.479782,37,-113,8294,56,-128,-1
0.47992,-2,-91,8330,50,-39,-32
0.480059,45,-128,8272,56,-90,-26
0.480201,-3,-140,8286,25,-58,-20
0.48034,25,-173,8295,19,-77,24
0.480477,74,-151,8334,38,-65,-70
0.480617,36,-135,8369,44,-52,5
0.480756,11,-151,8347,44,-52,-26
0.480897,6,-127,8327,56,-77,-32
0.481034,57,-132,8325,12,-58,-20
0.481174,18,-146,8314,82,-65,-20
0.481313,0,-115,8281,-6,-90,-7
0.481453,2,-78,8292,50,-58,-32
0.481592,75,-123,8336,25,-45,12
0.481731,31,-151,8282,82,-97,-39
0.481871,12,-106,8278,50,-45,-51
0.48201,-19,-133,8307,12,-77,18
0.482149,-5,-104,8309,19,-45,-20
0.482288,6,-148,8306,126,-103,-51
0.482428,-12,-134,8297,6,-52,-20
0.482567,21,-115,8286,69,-77,-26
0.482706,13,-102,8331,31,-71,-1
0.482846,8,-131,8304,31,-77,-26
0.482986,23,-90,8301,44,-65,-32
0.483124,68,-115,8275,69,-77,-20
0.483264,56,-117,8311,0,-52,5
0.483403,8,-137,8283,63,-71,-32
0.483542,19,-82,8310,63,-77,-1
0.483681,29,-79,8320,19,-45,-45
0.483821,44,-59,8364,88,-109,-32
0.48396,22,-138,8290,-6,-20,18
0.4841,36,-64,8302,94,-103,-58
0.484239,22,-115,8244,0,-45,-20
0.484378,20,-115,8278,63,-45,-7
0.484518,66,-173,8299,56,-122,12
0.484657,18,-147,8355,6,-77,-39
0.484796,-23,-155,8331,88,-45,-45
0.484935,-27,-110,8278,-32,-77,5
0.485075,51,-92,8296,119,-58,-39
0.485214,63,-147,8330,12,-97,-39
0.485353,53,-128,8300,56,-65,18
0.485493,39,-136,8301,44,-65,-70
0.485632,42,-137,8274,63,-71,12
0.485771,37,-115,8310,44,-71,-70
0.48591,62,-144,8296,25,-58,24
0.48605,43,-111,8228,19,-77,-1
0.486189,44,-102,8263,88,-77,-70
0.486329,30,-142,8360,19,-90,5
0.486468,14,-132,8305,50,-45,-20
0.486607,18,-139,8258,38,-84,-45
0.486748,51,-129,8293,38,-90,-7
0.486886,24,-129,8334,82,-45,-32
0.487025,33,-125,8282,-6,-58,-13
0.487164,52,-108,8267,63,-90,-13
0.487303,8,-141,8264,50,-77,-45
0.487444,12,-213,8267,63,-77,-20
0.487583,22,-122,8301,12,-20,5
0.487726,51,-98,8328,56,-103,-45
0.487861,79,-128,8324,31,-65,-1
0.488,44,-141,8339,38,-84,-20
0.48814,41,-169,8297,63,-58,-20
0.488279,57,-66,8339,0,-45,-7
0.488418,-13,-123,8262,75,-97,-39
0.488557,13,-94,8290,44,-97,-32
0.488697,18,-50,8254,25,-33,-20
0.488836,12,-99,8303,31,-39,-20
0.488975,19,-115,8313,56,-116,-13
0.489115,3,-154,8327,25,-45,-20
0.489254,19,-161,8347,38,-90,-26
0.489394,26,-135,8341,56,-65,-26
0.489533,33,-64,8303,38,-65,-39
0.489673,25,-119,8310,31,-77,18
0.489811,73,-163,8368,82,-71,-45
0.48995,2,-109,8325,31,-71,-32
0.49009,-70,-103,8343,38,-45,-7
0.490229,46,-176,8274,63,-97,-51
0.490368,68,-134,8276,25,-71,5
0.490508,19,-111,8286,69,-84,-32
0.490647,11,-167,8284,31,-45,-26
0.490786,27,-137,8318,31,-97,-13
0.490926,13,-150,8328,44,-52,-45
0.491065,-23,-69,8244,12,-65,18
0.491204,-22,-91,8331,88,-84,-58
0.491343,12,-61,8317,-13,-33,12
0.491483,69,-96,8313,100,-90,-32
0.491622,66,-129,8283,0,-33,-1
0.491761,41,-190,8329,82,-135,-51
0.491901,36,-129,8325,25,-33,31
0.49204,16,-114,8284,69,-52,-64
0.492179,-10,-130,8327,19,-84,-13
0.492319,24,-108,8356,94,-58,-26
0.492458,40,-143,8312,-13,-71,-7
0.492597,19,-100,8287,69,-71,-13
0.492737,-6,-128,8266,69,-77,-39
0.492876,1,-193,8338,19,-90,-1
0.493015,-7,-147,8283,31,-90,-77
0.493155,29,-137,8312,75,-71,31
0.493294,32,-176,8277,0,-39,-26
0.493433,48,-117,8306,82,-103,-32
0.493572,2,-69,8310,25,-84,-20
0.493712,15,-132,8330,31,-45,-58
0.493851,43,-176,8281,25,-65,18
0.49399,2,-107,8337,88,-84,-51
0.49413,-17,-117,8345,38,-84,-13
0.494269,12,-77,8304,19,-58,-1
0.494408,3,-169,8299,44,-90,-39
0.494548,-46,-157,8294,25,-71,-32
0.494687,-41,-117,8320,75,-84,-13
0.494826,5,-109,8325,38,-52,12
0.494966,43,-137,8311,44,-65,-77
0.495105,18,-120,8258,50,-77,12
0.495244,14,-170,8287,38,-84,-20
0.495383,-6,-125,8309,31,-39,-20
0.495523,74,-144,8286,56,-116,-7
0.495662,42,-91,8292,25,-58,-39
0.495801,-1,-88,8297,63,-71,-26
0.495941,22,-142,8341,38,-39,12
0.49608,17,-64,8278,63,-135,-58
0.496219,-4,-146,8334,19,-39,5
0.496359,18,-144,8294,38,-71,-39
0.496498,-6,-164,8291,56,-52,-7
0.496637,66,-121,8306,19,-128,5
0.496777,-8,-125,8279,56,-52,-58
0.496916,22,-78,8316,38,-58,12
0.497055,36,-115,8361,69,-97,-39
0.497194,68,-91,8316,-6,-39,-13
0.497338,12,-136,8324,88,-84,-7
0.497473,1,-165,8307,25,-77,-39
0.497612,31,-162,8318,38,-58,12
0.497752,52,-119,8271,56,-71,-45
0.497891,33,-113,8334,50,-71,-7
0.49803,40,-160,8282,38,-58,-51
0.49817,22,-143,8244,38,-65,-1
0.498309,17,-134,8287,56,-71,-20
0.498448,80,-70,8267,50,-97,-39
0.498588,48,-122,8266,38,-52,-26
0.498727,79,-139,8328,25,-52,18
0.498866,74,-107,8261,88,-122,-51
0.499006,25,-74,8343,0,-7,12
0.499145,83,-127,8303,63,-122,-58
0.499284,15,-108,8300,12,-58,-20
0.499423,84,-105,8310,63,-58,18
0.499563,65,-90,8322,69,-109,-77
0.499702,41,-74,8334,19,-58,43
0.499841,-19,-139,8279,31,-45,-64
0.499981,2,-115,8276,31,-84,18
0.50012,26,-122,8320,63,-65,-83
0.500259,16,-136,8263,50,-65,50
0.500399,23,-119,8289,44,-84,-89
0.500538,-14,-124,8276,56,-71,37
0.500677,-23,-147,8267,19,-58,-58
0.500817,43,-130,8322,50,-109,-7
0.500956,46,-58,8288,75,-39,-32
0.501095,20,-158,8264,19,-71,-13
0.501234,48,-192,8331,63,-77,-39
0.501374,20,-100,8323,12,-45,-20
0.501513,32,-112,8290,94,-77,-20
0.501652,45,-136,8257,19,-58,-1
0.501792,21,-143,8308,56,-84,-20
0.501931,65,-201,8325,63,-103,-45
0.50207,27,-157,8295,19,-58,-7
0.50221,27,-101,8311,56,-65,-51
0.502349,6,-149,8281,63,-84,5
0.502488,20,-134,8290,12,-65,-7
0.502628,49,-109,8262,63,-77,-26
0.502767,24,-109,8293,50,-58,-20
0.502906,28,-119,8341,25,-90,-45
0.503045,56,-154,8330,56,-52,-20
0.503185,54,-99,8310,63,-90,-7
0.503324,56,-75,8295,50,-46,-1
0.503463,16,-94,8307,12,-90,-58
0.503603,82,-104,8258,63,-58,-7
0.503742,56,-81,8286,38,-58,-32
0.503881,-15,-142,8286,56,-103,-32
0.504021,-10,-85,8251,44,-33,-7
0.50416,48,-99,8299,50,-77,-20
0.504299,42,-101,8354,50,-97,-45
0.504439,-20,-103,8309,19,-39,31
0.504578,22,-180,8278,50,-39,-58
0.504717,21,-103,8300,44,-97,-32
0.504856,2,-95,8326,38,-58,24
0.504996,9,-51,8330,44,-58,-39
0.505135,31,-106,8282,38,-103,-39
0.505274,45,-163,8301,63,-65,-1
0.505414,35,-165,8342,6,-33,-7
0.505553,17,-108,8308,69,-128,-13
0.505694,56,-165,8284,44,-20,-39
0.505832,7,-130,8322,31,-97,-1
0.505971,32,-143,8274,69,-52,-39
0.50611,6,-146,8332,6,-128,-1
0.50625,-54,-123,8346,56,-14,-13
0.506389,2,-98,8319,44,-97,-39
0.506528,46,-70,8275,56,-65,-13
0.506668,23,-95,8293,25,-71,-45
0.506807,-2,-129,8315,69,-65,-7
0.506946,34,-125,8305,44,-90,5
0.507085,15,-130,8287,38,-52,-13
0.507225,44,-142,8325,25,-65,-58
0.507364,56,-167,8319,44,-71,18
0.507503,15,-125,8338,69,-84,-64
0.507643,16,-98,8318,25,-84,-1
0.507782,36,-108,8328,31,-52,-26
0.507921,91,-77,8314,50,-65,-13
0.508061,-6,-143,8301,31,-84,-20
0.5082,15,-116,8293,44,-71,-13
0.508339,31,-127,8321,56,-77,-26
0.508479,56,-157,8309,44,-58,-13
0.508618,92,-150,8265,50,-97,-32
0.508757,39,-119,8293,44,-39,-13
0.508896,-37,-132,8271,75,-84,-26
0.509036,7,-156,8246,-19,-46,18
0.509175,14,-132,8346,94,-84,-64
0.509314,19,-108,8308,25,-77,5
0.509453,8,-78,8309,63,-77,-45
0.509593,27,-86,8312,25,-46,5
0.509732,-2,-80,8261,56,-71,-20
0.509872,3,-94,8295,69,-90,-51
0.510011,66,-135,8354,-13,-46,-7
0.51015,28,-128,8312,69,-65,-1
0.51029,32,-131,8360,63,-84,-51
0.510429,-14,-127,8346,19,-46,12
0.510568,12,-154,8277,69,-90,-51
0.510707,14,-147,8334,6,-71,12
0.510847,23,-144,8295,44,-65,-32
0.510986,80,-139,8315,25,-84,-45
0.511126,62,-86,8359,75,-33,18
0.511265,21,-133,8331,0,-65,-32
0.511404,64,-143,8358,88,-103,-45
0.511546,29,-105,8353,-13,-33,18
0.511683,4,-127,8297,88,-84,-45
0.511823,28,-146,8302,31,-103,-26
0.511961,14,-101,8278,63,-58,-7
0.512102,-18,-137,8306,50,-84,-58
0.51224,26,-132,8320,19,-71,-7
0.51238,45,-143,8329,31,-26,-1
0.512519,57,-98,8267,38,-90,-20
0.512658,25,-148,8265,56,-71,-58
0.512797,22,-144,8307,50,-46,31
0.512936,33,-174,8325,25,-71,-51
0.513076,1,-155,8270,38,-65,-13
0.513217,36,-120,8298,31,-77,-7
0.513354,-20,-117,8392,56,-26,-39
0.513494,9,-131,8375,31,-97,-13
0.513634,15,-97,8295,75,-71,-26
0.513772,11,-96,8278,6,-52,-7
0.513912,-1,-148,8268,50,-103,-32
0.514051,-2,-166,8302,75,-39,-20
0.514193,18,-157,8278,6,-84,-13
0.51433,18,-114,8329,31,-52,-13
0.514469,32,-165,8308,88,-103,-26
0.514608,22,-105,8363,31,-39,-20
0.514747,46,-130,8299,50,-65,-20
0.514887,29,-131,8278,82,-90,-32
0.515027,40,-147,8343,31,-71,-20
0.515165,19,-116,8341,38,-46,-1
0.515305,40,-112,8302,38,-90,-13
0.515444,67,-94,8304,50,-52,-39
