Average_IMU_SPS_Hz,6913.820
IMU_Time_sec,Accel_X_raw,Accel_Y_raw,Accel_Z_raw,Gyro_X_raw,Gyro_Y_raw,Gyro_Z_raw
0.0,-18,-131,8236,56,-71,-64
0.00014,16,-169,8349,56,-109,-13
0.00028,28,-136,8333,50,-46,-39
0.000422,-10,-106,8319,6,-77,-7
0.000558,2,-178,8301,75,-84,-20
0.000698,23,-144,8252,0,-39,-39
0.000836,65,-142,8321,56,-71,18
0.000976,0,-117,8324,44,-103,-51
0.001115,12,-69,8266,38,-39,-1
0.001254,16,-83,8238,82,-116,-58
0.001393,23,-123,8276,31,-20,-20
0.001533,57,-91,8289,0,-97,12
0.001672,36,-124,8270,107,-97,-32
0.001811,23,-131,8257,6,-52,-26
0.001951,-27,-136,8321,69,-77,-32
0.00209,-4,-117,8266,63,-90,-1
0.002229,4,-125,8270,0,-46,-20
0.002369,62,-121,8286,63,-84,-20
0.002508,21,-115,8298,31,-52,-39
0.002647,27,-100,8283,75,-71,5
0.002787,55,-132,8297,25,-128,-51
0.002926,-7,-152,8294,38,-26,-7
0.003065,71,-152,8311,44,-116,12
0.003204,70,-93,8306,38,-26,-45
0.003344,19,-131,8331,56,-84,-45
0.003483,47,-154,8297,50,-71,-20
0.003622,42,-164,8304,44,-46,-1
0.003762,10,-120,8249,56,-77,-26
0.003901,8,-111,8287,-6,-77,-26
0.00404,25,-188,8275,82,-97,-32
0.00418,-8,-145,8310,56,-33,12
0.004319,40,-94,8298,0,-77,-45
0.004458,52,-134,8267,50,-65,-7
0.004598,24,-141,8295,44,-97,-45
0.004737,42,-159,8283,56,-46,5
0.004876,33,-144,8281,12,-84,-20
0.005016,29,-100,8301,75,-33,-45
0.005155,27,-117,8265,31,-103,-13
0.005294,11,-150,8296,19,-20,5
0.005433,-61,-109,8307,94,-109,-45
0.005573,-39,-135,8310,6,-33,18
0.005712,24,-78,8306,82,-135,-83
0.005851,2,-147,8286,-13,-20,31
0.005991,-15,-127,8320,69,-84,-26
0.00613,3,-115,8329,38,-116,-51
0.006269,-14,-154,8255,50,-20,18
0.006409,72,-116,8268,69,-84,-45
0.006548,25,-128,8298,25,-77,-13
0.006687,17,-116,8271,19,-65,-1
0.006827,38,-156,8281,82,-97,-58
0.006966,28,-113,8263,6,-52,5
0.007105,-1,-80,8279,63,-84,-45
0.007244,36,-94,8301,56,-52,5
0.007384,-23,-151,8357,31,-109,-58
0.007523,-5,-170,8333,25,-14,31
0.007662,46,-159,8232,44,-103,-77
0.007802,37,-158,8259,38,-103,5
0.007941,6,-138,8329,38,-39,-13
0.00808,13,-74,8317,63,-71,-39
0.00822,61,-150,8362,38,-84,-26
0.008359,32,-117,8373,19,-39,-13
0.008498,47,-104,8322,82,-65,-20
0.008638,63,-152,8289,6,-90,-20
0.008777,22,-158,8283,56,-39,-32
0.008916,17,-140,8286,82,-84,-58
0.009055,-4,-165,8366,0,-52,37
0.009195,-22,-111,8325,63,-77,-64
0.009334,14,-109,8361,75,-90,5
0.009473,54,-160,8312,44,-52,-77
0.009613,12,-127,8330,6,-77,12
0.009752,-13,-112,8320,56,-77,-20
0.009891,-3,-140,8296,38,-71,-7
0.010035,-3,-107,8376,50,-77,-45
0.010173,16,-125,8322,12,-52,5
0.010312,2,-114,8298,94,-116,-64
0.010448,52,-138,8309,12,-46,-13
0.010588,44,-146,8249,38,-71,18
0.010727,35,-155,8290,69,-71,-58
0.010867,-10,-130,8326,25,-33,12
0.011007,20,-130,8270,50,-97,-51
0.011145,48,-156,8291,50,-52,-7
0.011284,-18,-197,8307,38,-97,-32
0.011424,-47,-179,8308,44,-77,-7
0.011563,-19,-144,8309,44,-58,-13
0.011702,24,-97,8250,25,-71,-45
0.011841,35,-118,8357,50,-84,-26
0.011981,14,-109,8327,56,-58,-13
0.01212,3,-171,8324,12,-84,-45
0.012259,15,-162,8269,38,-71,5
0.012399,34,-149,8259,44,-65,-39
0.012538,38,-88,8293,94,-90,5
0.012677,9,-133,8327,25,-46,-70
0.012818,43,-160,8356,6,-103,31
0.012958,17,-120,8282,56,-46,-39
0.013095,6,-93,8223,88,-122,-70
0.013235,5,-104,8263,25,-39,12
0.013374,15,-138,8288,19,-58,-20
0.013514,56,-130,8321,50,-109,-20
0.013653,50,-117,8331,25,-46,-26
0.013792,32,-88,8308,56,-46,-32
0.013931,99,-105,8343,56,-71,-7
0.014071,19,-159,8303,25,-71,-13
0.014211,1,-122,8202,69,-71,-70
0.014349,18,-112,8365,19,-65,31
0.014488,72,-154,8277,75,-90,-32
0.01463,28,-146,8290,38,-84,-45
0.014768,81,-106,8238,44,-58,-13
0.014909,35,-126,8278,6,-39,5
0.015046,43,-169,8268,94,-97,-45
0.015185,22,-179,8235,19,-58,-32
0.015324,43,-161,8265,44,-65,-13
0.015464,8,-134,8301,69,-90,-39
0.015603,9,-140,8257,6,-46,-7
0.015742,47,-148,8314,88,-90,-26
0.015882,37,-157,8335,-6,-46,-1
0.016021,-8,-102,8315,113,-135,-39
0.01616,18,-70,8308,-19,-20,-32
0.0163,-49,-100,8322,44,-77,5
0.016439,-24,-116,8308,69,-71,-32
0.016578,50,-156,8308,25,-77,-13
0.016718,81,-160,8296,38,-39,-26
0.016857,62,-74,8244,63,-116,-26
0.016996,39,-141,8269,19,-46,-39
0.017136,26,-145,8267,69,-77,-7
0.017275,-1,-130,8314,0,-46,24
0.017414,53,-109,8271,75,-97,-77
0.017553,55,-139,8268,50,-84,-7
0.017693,33,-78,8288,25,-46,-1
0.017832,20,-116,8324,75,-77,-51
0.017971,38,-160,8343,38,-71,24
0.018111,50,-113,8295,25,-58,-39
0.01825,50,-167,8331,44,-97,-20
0.018389,60,-132,8321,63,-46,-39
0.018529,42,-98,8290,25,-90,5
0.018668,20,-135,8286,82,-71,-51
0.018807,70,-106,8293,12,-84,-13
0.018946,75,-102,8335,44,-46,-13
0.019086,28,-123,8274,31,-77,-39
0.019225,25,-119,8288,82,-103,-7
0.019364,25,-89,8300,-13,-33,-13
0.019504,68,-122,8293,94,-109,-20
0.019643,36,-130,8267,63,-52,-39
0.019782,52,-83,8286,38,-77,-20
0.019922,22,-148,8327,44,-84,-26
0.020061,32,-137,8310,38,-65,-26
0.0202,40,-69,8283,44,-77,-1
0.020339,-42,-167,8296,50,-77,-7
0.02048,-23,-152,8296,56,-65,-58
0.020618,24,-157,8284,75,-90,-7
0.020757,-2,-124,8336,-13,-46,-13
0.020897,31,-98,8282,38,-109,-39
0.021036,23,-160,8286,69,-46,-1
0.021175,48,-130,8336,25,-52,-7
0.021315,36,-134,8291,69,-109,-45
0.021454,-4,-140,8329,44,-39,-20
0.021593,43,-143,8300,12,-71,-13
0.021732,5,-95,8335,63,-77,-32
0.021872,45,-106,8322,12,-46,-13
0.022011,28,-143,8331,75,-77,-32
0.02215,70,-144,8286,19,-65,31
0.02229,40,-148,8328,44,-77,-64
0.022429,8,-60,8234,50,-90,-1
0.022569,1,-81,8250,25,-65,-20
0.022708,26,-133,8275,44,-77,-7
0.022849,10,-149,8272,50,-52,-32
0.022986,-16,-124,8375,38,-84,-13
0.023126,10,-130,8335,69,-39,-26
0.023265,-42,-139,8300,6,-90,-20
0.023404,41,-178,8275,94,-84,-20
0.023544,56,-119,8239,25,-58,-13
0.023683,35,-86,8304,12,-58,-51
0.023824,3,-152,8286,56,-39,24
0.023961,19,-119,8334,82,-109,-39
0.024101,30,-115,8309,25,-65,-26
0.02424,25,-148,8332,31,-58,-32
0.024383,21,-98,8302,12,-46,-13
0.024519,-17,-95,8317,94,-84,-7
0.024658,55,-143,8294,19,-103,-32
0.024798,55,-160,8298,38,-46,-13
0.024938,51,-106,8323,56,-77,-20
0.025076,17,-119,8329,31,-97,-13
0.025216,2,-151,8324,63,-26,-26
0.025355,-19,-133,8291,-6,-84,-32
0.025494,8,-101,8256,69,-71,18
0.025634,54,-56,8310,50,-65,-45
0.025773,29,-152,8372,63,-84,-32
0.025912,0,-99,8301,-13,-52,5
0.026051,-17,-163,8304,88,-109,-45
0.026191,25,-144,8335,0,-52,-1
0.02633,49,-90,8325,63,-71,-26
0.026469,20,-154,8326,31,-90,-32
0.026609,53,-145,8312,44,-52,31
0.026748,18,-122,8314,38,-52,-77
0.026887,59,-124,8284,44,-97,37
0.027027,62,-110,8310,44,-71,-70
0.027165,58,-115,8295,25,-58,5
0.027305,38,-198,8273,88,-65,-45
0.027445,3,-97,8283,12,-52,5
0.027584,49,-115,8325,44,-71,-45
0.027723,77,-158,8267,25,-58,-1
0.027862,37,-144,8274,56,-77,-32
0.028002,38,-94,8364,50,-77,-13
0.028141,32,-157,8342,31,-58,-20
0.02828,17,-89,8260,50,-65,-20
0.02842,21,-80,8267,38,-84,-26
0.028559,28,-156,8278,56,-46,-26
0.028698,27,-152,8350,0,-90,-13
0.028838,-10,-129,8313,63,-90,-39
0.028977,28,-131,8318,75,-46,-32
0.029116,31,-153,8333,0,-77,-7
0.029255,32,-147,8317,107,-71,-20
0.029395,38,-118,8318,25,-65,-32
0.029534,26,-79,8309,31,-71,-20
0.029673,47,-149,8324,56,-71,-7
0.029813,56,-180,8290,50,-65,-45
0.029952,41,-168,8332,12,-71,18
0.030091,72,-169,8308,107,-84,-26
0.03023,-6,-129,8254,-32,-46,-20
0.03037,11,-117,8334,75,-90,-58
0.030509,34,-112,8335,56,-71,12
0.030648,28,-83,8296,12,-46,-7
0.030788,32,-116,8287,75,-97,-39
0.030927,19,-107,8305,19,-46,-13
0.031066,-5,-174,8319,63,-77,-39
0.031206,37,-153,8289,44,-84,-32
0.031345,42,-117,8284,19,-65,-7
0.031484,21,-122,8325,38,-84,-1
0.031623,14,-120,8274,44,-46,-51
0.031763,62,-134,8353,38,-116,12
0.031906,34,-161,8305,63,-39,-32
0.032042,23,-172,8287,25,-116,-26
0.032181,87,-148,8275,38,-26,-32
0.03232,68,-103,8297,56,-71,-13
0.032459,-11,-130,8340,38,-77,-20
0.032599,30,-89,8322,25,-39,5
0.032738,53,-135,8280,50,-103,-58
0.032878,22,-138,8287,69,-71,-13
0.033017,65,-56,8299,19,-46,12
0.03316,46,-120,8377,44,-77,-20
0.033295,44,-127,8319,56,-90,-51
0.033435,58,-122,8303,0,-39,-1
0.033574,87,-102,8338,94,-109,-51
0.033713,-6,-128,8321,12,-26,5
0.033852,61,-146,8297,75,-116,-13
0.033992,63,-174,8292,-25,-46,-13
0.034131,14,-133,8305,100,-65,-45
0.03427,1,-65,8300,38,-109,-7
0.034411,6,-131,8282,38,-7,-45
0.034549,31,-147,8320,38,-90,31
0.034688,13,-74,8296,31,-97,-83
0.034828,6,-103,8300,56,-65,-1
0.034967,62,-49,8323,44,-46,-1
0.035106,42,-164,8331,31,-46,-32
0.035246,23,-107,8314,44,-97,12
0.035385,10,-122,8332,82,-77,-64
0.035524,49,-128,8272,0,-65,-7
0.035663,11,-128,8311,88,-77,-26
0.035803,25,-123,8288,25,-77,-7
0.035942,10,-131,8302,44,-71,-51
0.036081,1,-102,8270,38,-71,-1
0.036221,7,-112,8320,94,-77,-45
0.036364,7,-107,8297,0,-33,-20
0.036499,21,-111,8306,38,-71,12
0.036641,17,-114,8288,38,-90,-58
0.036778,49,-146,8301,82,-58,-39
0.036917,34,-140,8304,12,-65,5
0.037057,44,-110,8313,63,-90,-39
0.037196,21,-82,8319,0,-46,-7
0.037335,62,-132,8321,75,-84,-20
0.037475,46,-98,8329,25,-52,-26
0.037613,16,-122,8296,50,-90,-20
0.037753,-22,-100,8341,56,-65,-20
0.037892,34,-147,8319,50,-97,-13
0.038032,50,-125,8324,25,-52,-26
0.038171,22,-124,8325,44,-65,-1
0.03831,6,-174,8308,50,-77,-51
0.03845,18,-152,8313,19,-97,-13
0.038589,14,-132,8300,38,-33,18
0.038728,44,-127,8305,50,-65,-45
0.038868,-5,-157,8344,44,-90,-13
0.039007,18,-128,8356,56,-97,-26
0.039146,0,-106,8293,25,-46,-39
0.039286,27,-89,8259,38,-71,24
0.039425,11,-103,8298,50,-52,-64
0.039564,28,-59,8337,12,-128,5
0.039703,29,-153,8330,94,-39,-58
0.039843,-15,-147,8330,19,-33,5
0.039982,-3,-126,8293,69,-103,-13
0.040121,28,-98,8299,19,-84,-51
0.040261,80,-152,8310,56,-58,18
0.0404,46,-118,8358,31,-84,-39
0.040539,3,-150,8311,69,-71,-45
0.040679,-68,-138,8296,44,-52,5
0.040818,-8,-72,8309,25,-90,-32
0.040957,36,-59,8259,69,-109,-39
0.041097,-14,-132,8299,25,-33,31
0.041236,24,-158,8307,38,-71,-45
0.041376,-10,-124,8315,56,-97,-39
0.041514,41,-82,8252,44,-71,-13
0.041654,56,-101,8262,38,-52,12
0.041793,21,-146,8305,12,-84,-39
0.041932,59,-100,8300,56,-71,-39
0.042072,-5,-152,8303,63,-77,5
0.042211,39,-173,8307,25,-58,-45
0.042355,-11,-137,8294,44,-65,5
0.04249,45,-109,8312,69,-58,-70
0.042629,21,-141,8283,-13,-84,18
0.042768,97,-144,8297,100,-46,-64
0.042908,-18,-136,8272,-13,-71,31
0.043047,6,-154,8274,107,-84,-58
0.043186,18,-177,8348,-25,-58,-13
0.043325,39,-148,8275,100,-65,-39
0.043465,32,-96,8307,-25,-65,18
0.043604,29,-163,8318,75,-84,-26
0.043743,52,-131,8292,56,-71,-26
0.043883,22,-117,8288,25,-71,-39
0.044022,40,-130,8259,56,-77,-1
0.044161,95,-136,8308,31,-52,-26
0.044301,61,-146,8327,31,-71,-1
0.04444,50,-20,8308,31,-84,-39
0.044579,-22,-77,8277,56,-65,-7
0.044719,69,-123,8284,44,-84,-45
0.044858,25,-135,8252,31,-58,-13
0.044997,6,-148,8259,38,-46,-7
0.045137,11,-144,8256,63,-109,-51
0.045277,52,-84,8298,25,-46,-7
0.045415,36,-131,8288,56,-71,-32
0.045554,54,-104,8255,25,-71,-1
0.045695,39,-140,8290,38,-46,-32
0.045833,-2,-151,8308,44,-103,-20
0.045972,74,-151,8313,31,-77,-13
0.046112,60,-119,8304,82,-71,-51
0.046251,30,-90,8309,-13,-58,5
0.04639,-13,-119,8323,75,-103,-32
0.04653,-28,-108,8389,44,-33,-13
0.046669,53,-130,8360,50,-65,-7
0.046808,31,-142,8355,38,-84,-32
0.046948,-17,-90,8319,6,-46,5
0.047089,52,-127,8301,88,-141,-58
0.047226,51,-106,8284,12,-26,-1
0.047365,15,-111,8304,38,-84,12
0.047505,51,-140,8313,69,-39,-45
0.047644,43,-127,8295,12,-97,-45
0.047783,1,-128,8347,31,-65,12
0.047923,-22,-154,8325,94,-84,-20
0.048062,32,-166,8323,-6,-14,-39
0.048201,-4,-57,8322,50,-109,12
0.048341,46,-107,8263,63,-77,-58
0.04848,72,-129,8225,63,-90,-13
0.048619,76,-112,8287,31,-33,-20
0.048759,35,-107,8304,50,-65,-32
0.048898,20,-120,8317,38,-90,-45
0.049037,2,-113,8315,44,-39,24
0.049176,32,-146,8315,82,-116,-39
0.049316,44,-116,8275,50,-39,-64
0.049455,36,-84,8311,19,-65,50
0.049594,-14,-126,8342,25,-58,-64
0.049734,10,-106,8331,50,-109,-13
0.049873,4,-148,8286,44,-26,-20
0.050012,44,-134,8311,19,-84,-32
0.050152,26,-120,8311,50,-52,-13
0.050292,27,-135,8252,31,-103,-20
0.05043,88,-118,8275,69,-71,-26
0.05057,41,-118,8351,-19,-52,-7
0.05071,53,-100,8268,75,-109,-51
0.050848,9,-150,8278,25,-39,-1
0.050987,69,-141,8369,44,-90,-13
0.05113,-10,-128,8334,12,-46,-20
0.051266,40,-92,8313,69,-84,-20
0.051405,20,-81,8301,6,-26,-45
0.051547,10,-125,8339,56,-103,12
0.051684,-5,-176,8354,69,-58,-45
0.051823,47,-132,8353,31,-58,-1
0.051963,33,-91,8351,38,-84,-51
0.052102,4,-97,8318,31,-33,12
0.052241,28,-125,8285,69,-116,-13
0.052382,33,-123,8294,6,-52,-58
0.05252,39,-156,8272,56,-20,24
0.052659,22,-97,8275,75,-141,-64
0.052798,13,-130,8314,-19,-20,12
0.052938,57,-95,8292,56,-90,-51
0.053079,41,-190,8306,31,-39,12
0.053217,28,-172,8253,63,-71,-45
0.053356,-4,-152,8256,56,-90,-13
0.053496,18,-133,8274,25,-33,-7
0.053634,28,-105,8291,69,-90,-45
0.053776,21,-149,8309,25,-65,-26
0.053913,71,-99,8309,56,-90,-1
0.054052,35,-130,8253,19,-33,-7
0.054192,37,-144,8316,56,-109,-32
0.054333,54,-125,8253,63,-20,-51
0.054471,18,-131,8270,19,-71,24
0.05461,24,-140,8324,38,-90,-39
0.054751,44,-100,8282,31,-46,-1
0.054888,8,-163,8296,12,-65,-45
0.055028,6,-137,8244,63,-65,-32
0.055167,30,-84,8288,38,-71,-1
0.055306,17,-106,8322,44,-65,-20
0.055445,61,-93,8300,44,-52,-26
0.055585,22,-139,8337,44,-97,-1
0.055724,17,-106,8306,38,-26,-45
0.055863,32,-126,8263,56,-109,-13
0.056002,39,-146,8296,25,-58,5
0.056142,26,-121,8321,56,-58,-51
0.056281,93,-158,8305,50,-90,-1
0.05642,29,-105,8292,12,-58,-45
0.056563,44,-113,8219,44,-71,18
0.056699,52,-143,8298,69,-103,-51
0.056838,34,-130,8255,31,-1,-7
0.056978,-5,-130,8330,25,-97,-51
0.057117,-10,-144,8292,31,-77,12
0.057256,65,-98,8322,56,-77,-58
0.057396,-5,-172,8306,69,-90,18
0.057535,-17,-141,8378,6,-39,-51
0.057675,30,-90,8302,82,-77,-20
0.057815,44,-79,8298,25,-90,-26
0.057954,22,-178,8286,44,-46,-1
0.058093,43,-130,8317,31,-58,-26
0.058233,65,-117,8286,50,-65,-26
0.058371,66,-129,8293,12,-97,-26
0.05851,45,-122,8332,56,-26,-13
0.058649,25,-117,8299,50,-103,-20
0.058789,36,-151,8322,44,-90,-20
0.058928,27,-83,8292,6,-52,-20
0.059067,83,-112,8292,88,-77,-51
0.059208,56,-104,8322,0,-52,-1
0.059346,69,-80,8239,82,-58,-26
0.059486,66,-95,8254,6,-103,-20
0.059625,36,-81,8305,44,-26,-26
0.059764,-7,-98,8254,82,-97,-39
0.059904,17,-215,8310,-6,-33,-1
0.060043,30,-164,8289,88,-122,-51
0.060182,9,-148,8283,6,-26,18
0.060321,15,-169,8350,63,-90,-51
0.060461,50,-92,8302,38,-46,-1
0.0606,64,-120,8347,44,-103,-83
0.060739,25,-162,8353,25,-46,50
0.060878,48,-109,8292,75,-97,-39
0.061018,36,-120,8310,31,-14,-39
0.061157,-6,-142,8325,63,-128,18
0.061298,0,-144,8310,12,-33,-51
0.061436,23,-120,8332,69,-90,-32
0.061575,21,-133,8340,38,-77,12
0.061715,28,-110,8334,63,-65,-13
0.061855,22,-113,8320,25,-71,-77
0.061993,34,-133,8308,56,-71,24
0.062132,10,-115,8254,19,-52,-39
0.062272,64,-116,8273,63,-65,-20
0.062411,-76,-146,8290,25,-90,-13
0.062552,-33,-170,8295,56,-39,-39
0.062689,15,-174,8305,44,-103,-7
0.062829,18,-141,8331,56,-46,-13
0.062968,18,-151,8263,25,-58,-20
0.063107,15,-164,8265,56,-58,-39
0.063247,-6,-183,8329,31,-103,-1
0.063386,48,-169,8311,63,-84,-32
0.063525,45,-100,8322,31,-52,-7
0.063664,39,-135,8299,94,-97,-51
0.063804,38,-155,8313,-25,-77,-1
0.063943,-17,-108,8338,69,-52,-1
0.064083,18,-108,8319,31,-116,-58
0.064222,65,-164,8318,25,-33,24
0.064364,7,-132,8279,69,-71,-70
0.064501,32,-103,8285,25,-103,12
0.06464,11,-116,8304,69,-39,-45
0.06478,17,-75,8327,6,-71,18
0.064918,40,-94,8297,75,-90,-70
0.065058,12,-151,8328,-6,-46,5
0.065197,20,-107,8309,94,-103,-32
0.065337,35,-128,8325,12,-46,-7
0.065476,21,-186,8308,63,-84,-32
0.065615,39,-185,8308,75,-52,-26
0.065754,53,-162,8315,19,-90,-39
0.065895,77,-132,8318,31,-46,24
0.066033,22,-181,8286,31,-97,-51
0.066172,12,-153,8306,56,-65,-7
0.066312,48,-88,8291,63,-58,-20
0.066451,4,-125,8349,19,-84,-1
0.06659,64,-119,8327,75,-58,-51
0.066732,6,-165,8292,12,-77,12
0.066869,30,-86,8294,63,-71,-51
0.067008,47,-125,8345,38,-58,-20
0.067147,-7,-138,8306,56,-77,5
0.067287,42,-124,8270,12,-97,-26
0.067427,16,-160,8279,94,-71,-39
0.067565,-26,-175,8290,12,-71,-26
0.067705,75,-116,8293,38,-71,-7
0.067844,42,-140,8327,38,-71,-26
0.067983,41,-143,8349,25,-58,-26
0.068123,47,-132,8318,63,-84,-13
0.068262,57,-144,8240,56,-65,-13
0.068401,3,-152,8285,44,-65,-39
0.068541,38,-157,8334,19,-58,5
0.06868,28,-122,8291,63,-84,-26
0.068819,30,-93,8294,50,-90,-39
0.068959,28,-160,8311,6,-7,12
0.069098,62,-153,8331,82,-103,-39
0.069237,20,-151,8296,38,-77,-32
0.069376,30,-91,8288,-6,-46,12
0.069516,58,-90,8332,82,-109,-45
0.069655,15,-121,8328,12,-39,-1
0.069795,12,-55,8325,50,-90,-39
0.069934,-6,-154,8318,38,-65,18
0.070073,13,-186,8298,44,-65,-51
0.070212,56,-128,8232,63,-103,-39
0.070352,-24,-197,8247,6,-33,31
0.070491,-41,-161,8287,69,-109,-70
0.07063,32,-103,8290,38,-58,-1
0.07077,34,-128,8328,25,-46,-13
0.070909,93,-150,8287,82,-77,-32
0.071048,50,-85,8267,-25,-77,-20
0.071188,-18,-125,8317,107,-77,-39
0.071327,24,-151,8319,6,-20,-7
0.071466,-20,-138,8320,69,-116,-13
0.071605,-40,-121,8344,25,-58,-20
0.071744,-7,-126,8310,63,-90,-51
0.071884,10,-126,8297,38,-39,12
0.072023,-10,-170,8341,12,-65,-51
0.072163,26,-164,8313,63,-84,-7
0.072302,87,-105,8315,50,-90,-64
0.072442,14,-94,8324,0,-46,24
0.072581,31,-134,8330,69,-52,-45
0.07272,81,-132,8280,31,-103,-20
0.072859,7,-134,8279,25,-46,-7
0.072998,-6,-126,8300,82,-84,-39
0.073138,-16,-82,8328,31,-65,-20
0.073277,63,-98,8303,25,-46,5
0.073416,16,-80,8300,88,-90,-26
0.073555,59,-90,8322,-6,-46,-20
0.073695,24,-96,8355,75,-71,-7
0.073834,27,-105,8332,38,-116,-77
0.073973,9,-145,8347,-6,-26,31
0.074113,9,-105,8323,94,-103,-51
0.074252,35,-182,8303,44,-65,-7
0.074392,12,-158,8313,38,-33,-32
0.074531,31,-58,8299,19,-97,24
0.07467,11,-106,8299,44,-65,-45
0.074809,25,-118,8327,38,-26,5
0.074949,38,-105,8299,82,-116,-64
0.07509,48,-114,8281,-6,-26,24
0.075227,53,-97,8274,63,-97,-26
0.075366,40,-105,8323,31,-58,-32
0.075506,17,-134,8403,38,-39,-20
0.075645,-1,-148,8368,50,-84,-1
0.075786,17,-152,8333,63,-71,-51
0.075924,-34,-109,8313,50,-71,12
0.076065,6,-60,8316,12,-58,-20
0.076203,-29,-103,8363,56,-71,-32
0.076342,10,-77,8342,50,-97,-51
0.076481,72,-122,8310,38,-33,37
0.07662,44,-177,8274,75,-84,-39
0.07676,75,-105,8294,-13,-46,-26
0.076899,15,-109,8337,94,-128,-51
0.077038,5,-94,8320,0,6,31
0.077179,5,-122,8276,25,-90,-32
0.077317,13,-157,8347,56,-109,-70
0.077456,19,-146,8261,75,-33,31
0.077596,32,-151,8301,-25,-65,-64
0.077735,31,-136,8310,94,-103,5
0.077876,12,-130,8262,25,-52,-51
0.078013,38,-158,8265,19,-65,-13
0.078153,19,-160,8302,56,-65,-45
0.078294,40,-92,8295,44,-84,5
0.078431,4,-112,8277,12,-46,-20
0.078571,-10,-114,8360,63,-77,-26
0.07871,46,-139,8344,63,-84,-39
0.078849,7,-113,8301,31,-33,-20
0.078989,4,-132,8291,25,-84,12
0.079128,28,-167,8265,38,-58,-64
0.079267,2,-146,8322,56,-77,12
0.079406,-45,-108,8300,44,-58,-26
0.079546,16,-107,8310,82,-97,-64
0.079685,11,-119,8283,-19,-46,18
0.079825,14,-155,8315,113,-71,-64
0.079964,-23,-109,8325,-38,-33,12
0.080103,19,-81,8274,88,-109,-39
0.080242,77,-86,8272,25,-90,-26
0.080382,48,-171,8289,44,-26,24
0.080521,23,-134,8332,69,-90,-70
0.08066,-31,-119,8293,31,-58,-7
0.0808,-34,-142,8277,44,-71,-20
0.080939,-1,-129,8275,19,-84,-26
0.081078,31,-86,8292,63,-65,-7
0.081218,31,-153,8326,12,-58,-32
0.081356,27,-138,8302,88,-122,-58
0.081496,29,-78,8294,25,-20,37
0.081635,77,-130,8331,19,-71,-64
0.081775,45,-139,8273,75,-97,-20
0.081914,-31,-109,8306,0,-14,-7
0.082053,45,-113,8327,63,-122,-20
0.082193,-4,-142,8335,69,-33,-39
0.082332,18,-80,8291,31,-65,-26
0.082474,3,-113,8262,44,-71,12
0.082611,36,-103,8299,44,-58,-64
0.08275,51,-143,8279,12,-71,5
0.082891,6,-93,8285,69,-71,-45
0.083029,7,-172,8298,44,-71,-1
0.083168,32,-159,8289,56,-65,-13
0.083307,34,-150,8247,12,-77,-45
0.083446,22,-123,8340,25,-52,-1
0.083586,37,-135,8382,56,-122,-39
0.083725,0,-104,8332,50,-46,-32
0.083864,24,-99,8227,31,-90,-13
0.084004,23,-116,8296,44,-71,-39
0.084143,-10,-167,8316,56,-84,-20
0.084282,26,-195,8377,75,-97,-13
0.084422,80,-116,8321,-13,-14,-32
0.084562,48,-134,8295,44,-97,-32
0.0847,-4,-143,8276,56,-97,-7
0.084839,48,-153,8246,63,-71,-51
0.08498,52,-166,8344,0,-20,5
0.085118,64,-172,8301,31,-97,-13
0.085257,-5,-143,8281,50,-90,-45
0.085397,38,-99,8324,38,-65,-20
0.085536,-7,-138,8339,44,-46,-7
0.085675,11,-110,8264,44,-65,-7
0.085817,-4,-79,8278,31,-90,-39
0.085958,-31,-139,8247,63,-52,-20
0.086093,50,-76,8221,12,-84,-26
0.086233,25,-158,8299,88,-52,-1
0.086373,53,-154,8277,12,-58,-26
0.086511,35,-188,8359,44,-109,-26
0.086651,-5,-163,8365,56,-46,-13
0.08679,12,-100,8345,31,-84,-26
0.086929,34,-173,8274,56,-58,-26
0.087069,18,-137,8283,44,-46,-13
0.087209,19,-133,8319,50,-97,-51
0.087347,-14,-142,8273,56,-97,-7
0.087487,-30,-177,8277,0,-1,-20
0.087626,27,-136,8317,69,-128,-13
0.087767,86,-144,8314,6,-46,-13
0.087905,7,-118,8336,75,-97,-58
0.088044,13,-116,8274,19,-33,18
0.088185,-4,-160,8288,75,-97,-51
0.088322,-10,-100,8301,56,-46,-1
0.088462,37,-132,8265,25,-97,-51
0.088601,23,-175,8333,19,-65,18
0.08874,25,-168,8294,44,-71,-51
0.08888,0,-166,8352,50,-65,-20
0.089019,11,-190,8286,0,-46,24
0.089158,63,-119,8237,100,-128,-64
0.089298,44,-147,8255,25,-58,-13
0.089437,13,-93,8272,44,-39,-26
0.089576,-3,-72,8302,38,-103,-13
0.089716,12,-175,8343,50,-71,-39
0.089855,19,-139,8331,69,-71,-20
0.089994,2,-161,8331,19,-46,18
0.090133,32,-203,8356,31,-90,-96
0.090273,22,-138,8342,63,-77,37
0.090412,61,-78,8287,56,-52,-58
0.090551,64,-128,8320,44,-90,-26
0.090691,84,-157,8286,19,-71,-26
0.09083,63,-127,8342,75,-71,5
0.090969,68,-103,8298,25,-65,-26
0.091109,58,-205,8321,56,-97,-39
0.091248,40,-140,8344,75,-71,-39
0.091387,79,-127,8333,0,-52,24
0.091527,-9,-119,8322,31,-46,-45
0.091666,-28,-107,8306,82,-116,-26
0.091805,-12,-125,8304,25,-52,-32
0.091944,16,-112,8325,56,-71,5
0.092084,46,-156,8293,56,-71,-39
0.092223,5,-154,8344,0,-65,-13
0.092364,4,-183,8343,50,-77,-20
0.092502,86,-159,8285,44,-71,-13
0.092641,40,-156,8288,31,-39,-26
0.09278,19,-104,8252,31,-77,-45
0.092919,27,-176,8304,63,-71,-1
0.093059,26,-156,8315,25,-90,-51
0.093198,13,-106,8305,38,-39,18
0.093337,-10,-116,8314,56,-84,-32
0.093478,17,-166,8297,56,-77,-32
0.093616,7,-143,8280,25,-65,18
0.093755,-41,-71,8294,44,-52,-26
0.093894,-25,-112,8311,56,-109,-64
0.094034,35,-145,8343,25,-33,24
0.094173,38,-171,8280,56,-103,-64
0.094313,-1,-164,8342,44,-77,5
0.094454,7,-157,8251,31,-39,-39
0.094592,-21,-164,8263,38,-71,-13
0.09473,1,-140,8250,19,-84,-13
0.094872,35,-110,8249,75,-90,-32
0.095009,6,-98,8282,25,-7,-7
0.095148,41,-74,8298,63,-109,-32
0.095288,21,-103,8326,12,-58,-20
0.095432,-6,-170,8300,38,-58,5
0.095566,8,-133,8274,69,-90,-64
0.095707,-18,-137,8291,-13,-71,24
0.095845,13,-164,8332,63,-71,-83
0.095987,39,-183,8287,-13,-46,31
0.096124,17,-147,8286,69,-90,-51
0.096263,23,-132,8327,19,-26,5
0.096402,67,-114,8333,75,-128,-64
0.096541,46,-113,8308,-6,-7,31
0.096681,-13,-114,8315,82,-116,-51
0.09682,11,-133,8281,12,-71,-20
0.09696,10,-144,8265,56,-65,-7
0.097099,-48,-95,8286,56,-97,-45
0.097239,14,-102,8314,12,-39,-7
0.097378,13,-162,8325,69,-71,-1
0.097517,31,-179,8310,12,-52,-39
0.097657,42,-115,8266,82,-90,-45
0.097796,15,-96,8342,0,-39,18
0.097935,-8,-140,8284,63,-65,-26
0.098074,-3,-119,8272,50,-116,-58
0.098213,27,-114,8271,6,-20,37
0.098352,28,-155,8294,107,-77,-70
0.098492,53,-107,8312,-6,-58,-1
0.098631,26,-132,8302,69,-65,18
0.098771,72,-128,8340,-13,-77,-45
0.09891,71,-46,8375,82,-71,-26
0.099049,-12,-74,8330,25,-90,-20
0.099189,8,-141,8300,50,-52,-39
0.099328,21,-91,8295,25,-90,-7
0.099467,-14,-135,8284,50,-58,-7
0.099606,-5,-158,8306,63,-97,-58
0.099746,-3,-137,8351,38,-46,-13
0.099885,55,-154,8328,38,-84,18
0.100024,104,-103,8324,44,-71,-58
0.100164,75,-63,8289,44,-52,-7
0.100303,36,-103,8314,25,-58,-39
0.100442,19,-117,8320,44,-122,-32
0.100582,32,-113,8385,63,-52,-13
0.100721,13,-132,8346,25,-33,5
0.10086,22,-138,8313,25,-116,-51
0.101,12,-96,8270,56,-52,-1
0.101139,33,-167,8306,50,-65,-7
0.101278,56,-144,8274,56,-65,-26
0.101418,6,-120,8294,44,-90,-32
0.101557,3,-176,8318,0,-39,24
0.101696,78,-118,8261,113,-97,-45
0.101835,18,-152,8308,6,-65,-39
0.101976,-3,-121,8320,44,-77,18
0.102114,-13,-122,8338,50,-84,-77
0.102253,11,-76,8315,31,-52,12
0.102392,17,-113,8311,38,-97,-32
0.102532,24,-158,8304,56,-33,5
0.102672,6,-132,8249,25,-71,-39
0.102812,8,-101,8309,31,-77,-7
0.10295,23,-110,8303,75,-103,-51
0.103089,43,-58,8288,-19,-52,-39
0.103229,63,-148,8312,94,-46,43
0.103368,20,-175,8362,38,-84,-58
0.103507,16,-153,8288,38,-71,-7
0.103646,-14,-164,8332,63,-77,-45
0.103785,25,-145,8302,38,-39,-13
0.103925,42,-128,8309,50,-84,-32
0.104065,15,-156,8270,6,-90,12
0.104204,-29,-142,8355,69,-71,-70
0.104343,31,-152,8263,44,-46,12
0.104483,24,-182,8300,50,-97,-13
0.104622,17,-91,8336,19,-33,-39
0.104762,10,-74,8290,44,-97,5
0.1049,-38,-126,8250,69,-71,-51
0.105039,20,-68,8277,0,-33,18
0.105179,69,-119,8304,75,-135,-45
0.105318,-12,-127,8284,19,-46,-13
0.105457,26,-117,8281,19,-52,-7
0.105598,27,-123,8261,94,-97,-39
0.105736,5,-98,8300,-13,-20,18
0.105881,-17,-159,8298,107,-135,-58
0.106016,32,-129,8310,-6,-33,-26
0.106154,43,-156,8241,38,-65,18
0.106293,79,-156,8255,82,-58,-58
0.106433,38,-126,8306,19,-109,-1
0.106572,16,-131,8328,31,-26,-39
0.106712,-14,-179,8303,69,-77,-20
0.106851,26,-141,8291,25,-109,-39
0.10699,-5,-162,8309,38,-46,5
0.107129,-8,-158,8291,50,-65,-51
0.107269,58,-138,8288,56,-84,-1
0.107408,48,-152,8305,31,-46,5
0.107547,14,-101,8279,94,-90,-77
0.107686,47,-192,8292,-25,-26,24
0.107826,55,-142,8334,75,-116,-32
0.107965,42,-81,8312,56,-52,-39
0.108104,13,-166,8329,25,-65,-20
0.108244,7,-111,8324,56,-65,5
0.108383,16,-177,8339,44,-109,-58
0.108522,57,-143,8283,38,-20,18
0.108661,-17,-125,8319,44,-103,-64
0.108801,31,-97,8344,56,-46,-1
0.10894,11,-92,8384,25,-90,-45
0.109079,48,-91,8295,44,-71,5
0.109219,55,-100,8260,50,-90,-26
0.109359,22,-123,8295,19,-52,-7
0.109497,18,-187,8321,69,-97,-45
0.109637,42,-176,8300,50,-52,-7
0.109776,36,-178,8296,6,-71,-26
0.109915,0,-144,8284,88,-58,-20
0.110054,22,-124,8305,31,-109,-51
0.110194,46,-144,8334,63,-14,12
0.110333,37,-117,8331,-6,-103,-32
0.110473,37,-116,8311,69,-71,-20
0.110612,-6,-152,8302,25,-52,-13
0.110751,40,-120,8260,31,-77,-20
0.110891,-23,-92,8254,75,-90,-58
0.11103,-29,-165,8346,12,-46,-1
0.111169,34,-104,8321,56,-71,-45
0.111308,-1,-127,8306,50,-97,-45
0.111448,14,-144,8312,31,-58,18
0.111587,26,-146,8302,44,-52,-32
0.111726,8,-152,8289,63,-84,-20
0.111866,55,-153,8322,44,-77,-26
0.112005,33,-155,8330,19,-52,-1
0.112144,32,-124,8294,56,-71,-32
0.112283,73,-92,8281,6,-103,-32
0.112423,22,-140,8285,63,-33,-32
0.112562,41,-119,8295,50,-90,-7
0.112701,77,-110,8316,12,-46,-7
0.112841,29,-110,8294,56,-116,-45
0.11298,40,-160,8304,50,-46,-20
0.113119,-24,-153,8303,25,-58,18
0.113259,7,-105,8303,56,-71,-45
0.113398,-4,-86,8290,44,-65,-32
0.113537,-8,-146,8294,56,-77,-20
0.113676,-37,-155,8346,25,-84,-7
0.113816,6,-141,8288,56,-71,-58
0.113955,30,-131,8307,12,-33,-7
0.114095,57,-165,8346,82,-84,-32
0.114235,19,-130,8299,12,-71,-1
0.114374,51,-110,8312,44,-46,-26
0.114513,28,-189,8335,63,-116,-51
0.114653,22,-168,8306,69,-77,-7
0.114791,35,-129,8308,-13,-46,12
0.114931,38,-95,8316,56,-71,-32
0.11507,-39,-126,8318,44,-90,-32
0.115209,30,-132,8285,63,-71,-20
0.115348,57,-85,8281,19,-58,-32
0.115488,47,-139,8346,56,-77,-20
0.115628,4,-142,8320,19,-46,5
0.115766,12,-134,8277,50,-97,-70
0.115908,36,-121,8228,19,-58,-7
0.116045,25,-148,8320,82,-58,-13
0.116187,28,-104,8351,25,-103,-13
0.116323,-11,-111,8321,63,-52,-58
0.116463,23,-61,8330,12,-46,18
0.116602,11,-117,8291,107,-103,-39
0.116742,25,-127,8288,-44,-46,18
0.116881,15,-102,8318,113,-103,-64
0.11702,45,-91,8322,-19,-39,5
0.11716,58,-81,8324,82,-90,-51
0.117299,46,-68,8297,19,-26,5
0.117438,59,-98,8358,82,-103,-58
0.117577,-10,-127,8368,31,-58,5
0.117717,37,-124,8323,44,-77,-13
0.117856,2,-145,8296,69,-52,-1
0.117995,0,-148,8318,19,-90,-39
0.118135,-7,-157,8284,69,-65,-26
0.118274,40,-130,8308,0,-46,-7
0.118413,-24,-135,8309,56,-65,-26
0.118552,-26,-97,8331,63,-90,-26
0.118692,55,-118,8297,63,-71,-20
0.118831,-4,-190,8309,12,-52,-1
0.11897,44,-87,8323,63,-122,-64
0.11911,46,-78,8320,38,-33,-1
0.119249,-9,-134,8304,12,-97,-1
0.119388,-40,-160,8296,69,-71,-39
0.119528,-12,-141,8301,44,-46,-20
0.119667,32,-127,8328,69,-97,-32
0.119806,21,-129,8332,0,-58,-13
0.119945,36,-143,8300,63,-109,-26
0.120085,40,-120,8312,-6,-46,-13
0.120224,41,-130,8317,88,-90,-7
0.120364,-8,-167,8271,25,-71,-32
0.120503,35,-155,8314,63,-39,-32
0.120642,-14,-114,8305,25,-109,-13
0.120781,-54,-166,8294,50,-65,-26
0.120922,25,-171,8366,56,-58,-20
0.12106,26,-118,8259,25,-84,-13
0.121199,44,-127,8309,69,-52,-39
0.121339,64,-165,8307,19,-90,18
0.121478,61,-110,8253,63,-39,-45
0.121617,7,-134,8332,25,-90,-20
0.121757,-50,-133,8344,50,-58,-20
0.121896,1,-151,8354,63,-103,-45
0.122035,35,-96,8284,19,-33,5
0.122175,61,-147,8266,82,-71,-26
0.122315,57,-113,8328,12,-90,-7
0.122453,32,-136,8278,38,-77,-51
0.122592,43,-115,8270,75,-71,-7
0.122732,-26,-117,8265,12,-46,-13
0.122871,-8,-152,8309,31,-71,-39
0.123013,56,-186,8308,94,-90,-32
0.12315,64,-109,8309,6,-58,12
0.123289,78,-93,8271,50,-71,-26
0.123428,-14,-142,8283,31,-58,-13
0.123567,17,-164,8324,75,-97,-26
0.123707,62,-104,8302,31,-71,-13
0.123846,32,-120,8302,44,-97,-58
0.123985,-5,-135,8320,63,-39,43
0.124126,-3,-160,8339,69,-103,-102
0.124264,6,-114,8309,6,-71,37
0.124405,21,-135,8304,63,-58,-45
0.124543,34,-116,8286,44,-77,-7
0.124682,24,-142,8287,44,-65,-32
0.124823,62,-161,8335,50,-109,-20
0.124961,37,-160,8285,50,-26,5
0.1251,-3,-114,8288,12,-77,-51
0.125239,22,-134,8295,63,-58,5
0.125378,20,-188,8262,44,-77,-39
0.125519,3,-162,8288,44,-77,-13
0.125657,16,-150,8257,-6,-46,-13
0.125796,20,-176,8334,107,-122,-39
0.125936,21,-170,8306,31,-65,5
0.126075,52,-109,8321,6,-33,-20
0.126214,14,-119,8299,88,-77,-26
0.126354,6,-141,8330,38,-58,-20
0.126493,3,-96,8310,100,-128,-51
0.126637,-10,-134,8320,-44,-14,31
0.126772,53,-146,8347,100,-90,-45
0.126911,16,-123,8305,19,-71,-7
0.12705,73,-137,8270,38,-97,-45
0.127189,31,-143,8311,50,-39,-7
0.127329,-4,-148,8322,25,-90,-13
0.127468,70,-116,8288,63,-84,-26
0.127607,58,-102,8265,25,-39,-26
0.127747,37,-74,8275,82,-109,-13
0.127886,25,-118,8299,-19,-7,-7
0.128025,19,-107,8280,100,-128,-64
0.128165,-10,-142,8300,6,-71,12
0.128304,65,-126,8284,63,-71,-13
0.128443,4,-76,8304,44,-71,-51
0.128583,-22,-106,8306,31,-33,37
0.128722,62,-135,8293,38,-77,-64
0.128861,49,-148,8320,75,-77,-13
0.129001,44,-109,8309,25,-71,-20
0.12914,47,-106,8311,25,-77,-7
0.129279,65,-120,8288,75,-84,-32
0.129418,47,-129,8304,6,-58,-7
0.129558,-6,-98,8374,63,-90,-32
0.129697,25,-158,8336,63,-65,-7
0.129836,9,-146,8330,44,-97,-20
0.129976,15,-175,8361,38,-65,-39
0.130115,88,-117,8345,25,-58,31
0.130254,59,-127,8281,63,-103,-45
0.130394,40,-159,8351,38,-46,-13
0.130533,46,-138,8308,38,-77,-45
0.130672,63,-143,8277,44,-90,31
0.130812,54,-107,8323,63,-71,-58
0.130951,7,-141,8312,31,-77,-32
0.13109,-38,-117,8308,56,-39,24
0.131229,12,-101,8276,50,-71,-45
0.131369,35,-137,8288,56,-97,-32
0.131508,-1,-138,8324,0,-84,37
0.131647,50,-115,8291,75,-65,-89
0.131787,-4,-153,8342,31,-58,24
0.131926,-18,-135,8239,63,-71,-32
0.132065,26,-101,8306,12,-71,5
0.132205,-3,-137,8296,75,-90,-51
0.132344,-12,-135,8262,0,-52,24
0.132483,27,-80,8323,44,-84,-51
0.132623,3,-90,8312,63,-84,-26
0.132762,20,-133,8326,25,-46,-7
0.132901,12,-104,8335,56,-103,-20
0.13304,38,-168,8350,19,-39,5
0.13318,52,-136,8265,75,-135,-51
0.133319,6,-115,8202,25,-58,-7
0.133458,-4,-88,8306,50,-33,-13
0.133598,-29,-116,8318,44,-122,-26
0.133737,71,-154,8283,56,-20,-39
0.133876,47,-124,8275,50,-116,-13
0.134016,-14,-107,8300,12,-33,5
0.134155,49,-150,8327,44,-84,-39
0.134294,34,-142,8294,88,-97,-32
0.134434,42,-160,8314,31,-39,-20
0.134573,10,-147,8322,31,-84,-20
0.134712,-10,-152,8260,25,-52,-13
0.134851,6,-87,8347,88,-109,-32
0.134991,42,-135,8280,-6,-52,-7
0.13513,49,-155,8240,82,-97,-64
0.135269,21,-125,8313,31,-39,18
0.135409,37,-130,8309,50,-90,-51
0.135548,50,-177,8323,31,-71,12
0.135687,-32,-125,8353,56,-71,-64
0.135827,24,-109,8303,31,-71,18
0.135966,27,-147,8322,50,-71,-45
0.136107,-27,-127,8266,25,-58,18
0.136245,34,-114,8292,75,-58,-51
0.136384,31,-126,8296,19,-97,-32
0.136523,45,-133,8327,82,-33,24
0.136663,-8,-112,8311,38,-128,-77
0.136802,14,-140,8273,50,-33,43
0.136941,4,-164,8282,19,-84,-64
0.13708,43,-128,8274,56,-58,-1
0.13722,8,-109,8329,50,-90,-45
0.137359,27,-110,8295,50,-58,-1
0.137498,56,-127,8354,69,-77,-39
0.137638,12,-122,8281,19,-65,5
0.137777,35,-120,8352,50,-103,-77
0.137916,-52,-153,8332,25,-39,24
0.138056,-2,-110,8310,100,-84,-45
0.138195,61,-67,8317,6,-33,31
0.138334,52,-131,8298,75,-103,-102
0.138474,31,-109,8269,44,-58,31
0.138613,58,-65,8248,31,-65,-1
0.138752,-3,-106,8325,44,-109,-64
0.138891,47,-138,8297,88,-33,-1
0.139031,48,-164,8297,19,-90,-32
0.13917,-11,-189,8298,31,-46,-7
0.139309,-37,-105,8341,44,-65,-32
0.139449,34,-147,8302,44,-84,-13
0.139588,13,-199,8297,31,-90,-32
0.139727,72,-85,8328,50,-58,-45
0.139869,30,-139,8314,44,-84,-1
0.140006,38,-186,8284,19,-65,-26
0.140145,15,-171,8283,82,-65,-13
0.140285,16,-132,8263,12,-77,-58
0.140424,54,-152,8312,38,-77,-7
0.140563,-16,-147,8324,25,-52,12
0.140702,-14,-120,8264,56,-71,-64
0.140842,46,-80,8265,50,-90,-7
0.140981,-35,-125,8308,25,-71,-13
0.14112,43,-98,8354,38,-52,-7
0.14126,5,-125,8261,75,-84,-58
0.141399,29,-90,8324,12,-90,5
0.141538,25,-123,8349,44,-46,-20
0.141678,14,-176,8313,31,-90,-32
0.141817,34,-187,8349,63,-71,-7
0.141956,18,-117,8310,50,-90,-39
0.142096,12,-127,8298,12,-26,-1
0.142235,18,-102,8318,100,-109,-58
0.142374,5,-127,8337,6,-65,12
0.142513,28,-173,8367,38,-71,-39
0.142653,30,-134,8341,50,-52,-1
0.142792,11,-152,8321,69,-84,-26
0.142931,2,-140,8305,31,-58,-13
0.143071,6,-117,8324,50,-90,-26
0.14321,35,-111,8288,44,-46,-20
0.143349,30,-154,8322,50,-97,-20
0.143489,62,-192,8297,50,-58,-1
0.143628,51,-128,8271,38,-52,-26
0.143767,32,-183,8353,38,-97,-58
0.143907,25,-169,8333,75,-52,-1
0.144046,12,-103,8305,31,-84,-13
0.144185,46,-154,8302,44,-58,-20
0.144325,21,-138,8326,31,-65,-13
0.144464,32,-111,8260,69,-58,-32
0.144603,34,-153,8266,44,-109,-51
0.144742,-6,-124,8367,44,-14,-7
0.144882,42,-152,8283,25,-90,5
0.145021,87,-147,8246,44,-71,-7
0.14516,63,-149,8334,75,-77,-51
0.1453,73,-116,8289,19,-58,-7
0.145439,49,-154,8366,44,-77,-32
0.145583,55,-151,8264,63,-52,-1
0.145718,24,-132,8274,6,-77,-7
0.145857,4,-121,8228,107,-90,-70
0.145996,20,-161,8341,-19,-58,37
0.146136,48,-153,8356,100,-77,-51
0.146275,54,-79,8325,-25,-65,-1
0.146414,55,-103,8310,113,-58,-45
0.146553,42,-134,8340,19,-84,18
0.146693,29,-99,8326,19,-71,-83
0.146832,68,-92,8354,63,-77,-1
0.146971,20,-96,8331,31,-39,-7
0.147112,24,-117,8292,56,-103,-51
0.14725,64,-136,8276,12,-71,12
0.147389,64,-124,8342,63,-39,-45
0.147531,53,-118,8300,19,-71,-32
0.147668,7,-146,8301,19,-52,-13
0.147807,4,-132,8301,50,-90,-7
0.147947,4,-79,8249,38,-52,-51
0.148086,13,-112,8337,56,-109,-32
0.148227,8,-201,8299,44,-39,5
0.148366,48,-120,8259,6,-90,-32
0.148504,4,-181,8312,56,-71,12
0.148643,22,-74,8340,56,-71,-64
0.148783,8,-107,8301,0,-52,18
0.148922,52,-119,8288,75,-77,-26
0.149063,74,-146,8277,31,-71,-26
0.149201,4,-219,8285,12,-58,-39
0.14934,68,-116,8276,56,-90,-26
0.14948,38,-114,8290,-13,-1,37
0.149618,8,-227,8274,107,-154,-77
0.149758,20,-122,8298,12,-14,12
0.149897,-23,-148,8312,25,-84,-32
0.150036,14,-134,8284,82,-90,-26
0.150176,23,-153,8302,31,-65,5
0.150315,77,-153,8300,63,-77,-45
0.150454,21,-133,8312,12,-77,-26
0.150595,21,-117,8325,25,-52,-32
0.150734,52,-129,8286,56,-84,-13
0.150872,42,-138,8255,82,-65,-13
0.151011,23,-105,8242,12,-97,-51
0.151151,4,-155,8252,63,-39,24
0.15129,18,-52,8273,25,-84,-64
0.151429,43,-48,8324,69,-39,12
0.151568,60,-105,8346,25,-109,-32
0.151708,30,-84,8306,69,-65,-45
0.151847,-18,-117,8313,38,-58,18
0.151986,-33,-105,8324,31,-77,-13
0.152126,38,-127,8307,82,-71,-64
0.152265,0,-127,8274,6,-58,5
0.152405,76,-161,8286,82,-84,-32
0.152544,6,-160,8320,19,-39,-7
0.152683,8,-120,8339,44,-84,-7
0.152824,71,-155,8309,56,-65,-64
0.152962,9,-100,8315,31,-65,5
0.153101,17,-144,8292,38,-52,-13
0.15324,59,-134,8330,69,-77,-39
0.153381,16,-69,8305,6,-33,24
0.153519,-62,-155,8290,63,-90,-64
0.153658,12,-132,8252,31,-39,-7
0.153799,-6,-139,8302,50,-84,-20
0.153937,-24,-127,8280,50,-52,-26
0.154076,48,-179,8268,56,-109,-45
0.154217,48,-167,8286,63,-33,24
0.154355,74,-140,8347,38,-116,-32
0.154494,79,-87,8349,19,-39,-7
0.154634,-7,-159,8312,88,-90,-64
0.154774,10,-155,8287,44,-52,5
0.154912,35,-184,8284,38,-84,-32
0.155053,42,-124,8245,50,-71,-26
0.155191,19,-130,8311,44,-65,-7
0.15533,39,-142,8345,56,-58,-7
0.155469,42,-172,8321,12,-97,-32
0.155609,-6,-111,8283,50,-46,-7
0.155749,-12,-129,8282,75,-103,-70
0.155887,30,-167,8342,0,-14,43
0.156026,50,-118,8341,82,-122,-45
0.156167,16,-101,8355,44,-39,-39
0.156305,54,-125,8385,-6,-58,-1
0.156446,19,-141,8313,107,-116,-51
0.156584,-6,-129,8357,-13,-7,12
0.156723,20,-64,8291,94,-103,-77
0.156866,66,-120,8359,6,-7,69
0.157002,20,-146,8345,50,-109,-83
0.157141,-18,-161,8308,25,-52,18
0.15728,8,-141,8268,44,-77,-58
0.15742,19,-86,8296,44,-71,12
0.157559,38,-145,8286,56,-71,-45
0.157698,10,-130,8287,44,-65,-7
0.15784,15,-118,8292,31,-33,-7
0.157977,-1,-92,8344,38,-103,-32
0.158117,18,-95,8313,44,-26,-58
0.158255,32,-139,8316,0,-97,12
0.158395,45,-116,8329,69,-33,-20
0.158534,19,-161,8327,31,-103,-58
0.158676,42,-159,8290,38,-39,12
0.158813,15,-156,8291,38,-77,-32
0.158952,16,-105,8258,25,-58,-45
0.159091,76,-108,8267,63,-77,-13
0.159232,47,-155,8311,12,-71,-26
0.15937,-2,-100,8346,75,-52,-26
0.159509,41,-102,8321,-19,-33,-1
0.159648,49,-141,8396,88,-109,-45
0.159788,4,-122,8329,31,-84,-32
0.159927,-22,-130,8326,31,-65,12
0.160066,-22,-153,8352,38,-71,-7
0.160206,30,-145,8327,69,-77,-20
0.160347,-36,-147,8310,19,-58,-7
0.160484,-21,-134,8303,38,-90,-51
0.160624,95,-142,8301,50,-65,-20
0.160763,28,-154,8327,38,-77,-13
0.160904,18,-118,8312,56,-52,12
0.161043,22,-113,8287,38,-71,-51
0.161181,20,-115,8289,50,-71,-1
0.161324,-8,-145,8337,31,-52,-7
0.16146,0,-141,8310,56,-97,-64
0.161599,7,-142,8299,12,-46,5
0.161738,-3,-154,8316,38,-71,-1
0.161877,10,-109,8328,19,-26,-32
0.162018,34,-123,8313,56,-128,-45
0.162156,42,-113,8316,63,-65,-7
0.162298,17,-166,8304,-6,-46,-13
0.162435,36,-188,8301,113,-90,-83
0.162574,18,-121,8251,0,-65,62
0.162714,53,-117,8328,44,-52,-32
0.162853,22,-146,8276,25,-84,-26
0.162992,-11,-104,8287,88,-97,-45
0.163131,22,-78,8321,19,-39,-1
0.163271,46,-111,8307,31,-84,-32
0.16341,23,-106,8328,82,-84,-13
0.163549,-28,-153,8339,38,-84,-39
0.163689,-1,-94,8278,6,-71,-7
0.163828,96,-88,8275,69,-52,-32
0.163969,69,-96,8284,19,-97,-20
0.164107,27,-124,8303,56,-39,-1
0.164246,31,-126,8275,50,-52,-64
0.164385,61,-152,8274,6,-58,5
0.164524,31,-140,8354,82,-103,-58
0.164665,-1,-132,8280,50,-52,-1
0.164803,52,-108,8274,12,-84,-26
0.164942,25,-114,8287,44,-71,-26
0.165083,25,-152,8318,38,-33,-26
0.165221,35,-128,8316,50,-90,-20
0.165364,47,-148,8318,50,-77,-26
0.1655,23,-155,8300,50,-33,-45
0.165639,17,-144,8306,38,-84,-1
0.165778,8,-152,8234,12,-65,-20
0.165918,22,-149,8321,82,-65,-20
0.166057,47,-146,8299,6,-90,-32
0.166196,-12,-94,8271,69,-77,-7
0.166335,18,-111,8326,56,-33,-39
0.166475,-2,-138,8319,31,-103,-1
0.166614,-47,-124,8258,38,-77,-7
0.166753,24,-119,8298,38,-52,-51
0.166893,18,-175,8318,31,-65,-26
0.167032,22,-142,8269,75,-77,12
0.167171,-10,-92,8325,25,-46,-45
0.167311,14,-74,8315,44,-97,-32
0.16745,19,-153,8294,50,-84,-20
0.167589,11,-177,8341,63,-26,-7
0.167729,13,-166,8308,6,-97,-26
0.167868,0,-121,8331,56,-71,-39
0.168007,37,-108,8318,31,-39,-20
0.168146,34,-108,8342,44,-90,12
0.168286,-9,-161,8355,50,-33,-39
0.168425,37,-151,8308,25,-97,-7
0.168565,35,-142,8265,88,-97,-64
0.168704,50,-168,8288,12,-20,24
0.168843,49,-123,8294,19,-71,-26
0.168982,32,-150,8330,94,-65,-20
0.169122,28,-133,8252,12,-46,-20
0.169261,43,-106,8265,56,-71,-7
0.1694,55,-146,8279,-6,-39,-20
0.169539,45,-142,8301,94,-109,-51
0.169679,71,-108,8249,6,-52,-7
0.169818,16,-120,8276,69,-71,-26
0.169957,23,-116,8287,63,-71,-7
0.170097,-2,-148,8311,31,-46,-45
0.170236,-18,-128,8285,50,-90,-7
0.170375,64,-170,8281,31,-77,-13
0.170516,46,-126,8288,94,-58,-45
0.170654,58,-162,8294,12,-84,5
0.170793,13,-139,8282,38,-58,-20
0.170932,36,-76,8345,94,-97,-45
0.171073,2,-121,8315,-19,-46,-45
0.171211,0,-147,8307,50,-84,31
0.17135,8,-181,8249,38,-77,-64
0.17149,38,-98,8325,12,-33,-7
0.171629,86,-62,8276,82,-65,-39
0.17177,40,-96,8260,6,-33,12
0.171908,16,-147,8265,63,-122,-70
0.172047,61,-194,8304,6,-52,12
0.172187,64,-143,8279,50,-71,-26
0.172327,28,-140,8283,12,-46,-32
0.172465,-9,-55,8316,69,-90,-13
0.172604,19,-73,8297,12,-26,-20
0.172744,64,-97,8290,69,-109,-7
0.172883,29,-165,8308,-6,-39,-58
0.173022,21,-152,8282,94,-90,12
0.173162,-4,-144,8292,25,-65,-7
0.173301,-10,-95,8342,19,-97,-39
0.17344,50,-98,8313,82,-71,-13
0.173579,28,-110,8297,25,-39,-13
0.173719,-4,-130,8317,75,-103,-58
0.173858,39,-147,8333,-6,-52,31
0.173997,14,-171,8372,56,-97,-70
0.174137,33,-166,8325,31,-58,18
0.174277,7,-152,8313,88,-77,-39
0.174415,62,-119,8312,12,-33,-26
0.174555,52,-107,8288,31,-84,-1
0.174694,26,-91,8298,69,-84,-45
0.174835,15,-125,8301,12,-39,-39
0.174978,28,-148,8338,56,-84,24
0.175112,47,-111,8313,19,-65,-51
0.175252,25,-130,8330,38,-39,-20
0.175391,8,-116,8332,12,-58,5
0.17553,66,-105,8310,100,-109,-58
0.175669,-18,-118,8328,6,-39,-7
0.175808,15,-137,8255,31,-77,-1
0.175948,38,-126,8327,44,-77,-26
0.176087,32,-149,8308,44,-90,-58
0.176226,78,-161,8319,0,-33,31
0.176366,34,-106,8357,82,-116,-70
0.176505,15,-102,8282,25,-33,-1
0.176644,48,-108,8321,44,-90,-13
0.176784,16,-115,8360,38,-65,-32
0.176923,6,-120,8315,19,-65,-1
0.177062,49,-142,8286,75,-77,-39
0.177202,39,-137,8329,25,-71,-13
0.177341,58,-160,8311,38,-65,-13
0.17748,24,-94,8300,82,-77,-20
0.17762,-26,-113,8293,25,-71,-32
0.177759,15,-156,8278,56,-58,-7
0.177898,50,-188,8308,12,-84,-26
0.178037,-19,-153,8321,56,-52,-58
0.178177,32,-172,8285,31,-97,24
0.178316,61,-112,8306,63,-71,-45
0.178457,-11,-110,8357,0,-52,-7
0.178596,51,-146,8337,75,-90,-39
0.178734,20,-160,8310,31,-33,-13
0.178873,34,-180,8330,38,-97,-20
0.179013,9,-128,8268,38,-84,-32
0.179152,42,-151,8292,56,-71,-1
0.179291,28,-155,8307,31,-46,-32
0.17943,22,-134,8362,38,-65,-20
0.17957,18,-141,8376,38,-77,18
0.179709,15,-130,8321,75,-90,-96
0.179848,7,-111,8329,25,-33,37
0.179987,54,-124,8280,63,-109,-39
0.180127,26,-108,8301,6,-20,37
0.180267,-13,-119,8296,75,-128,-108
0.180406,5,-115,8362,38,-58,31
0.180545,29,-109,8308,25,-71,-45
0.180686,2,-123,8276,25,-90,-20
0.180825,42,-91,8311,88,-58,-7
0.180963,39,-138,8328,19,-58,-39
0.181102,3,-144,8264,69,-77,-7
0.181241,47,-96,8293,25,-58,-20
0.181381,32,-152,8351,31,-71,-13
0.18152,9,-173,8389,56,-58,-32
0.18166,61,-122,8314,19,-77,-51
0.181799,9,-98,8264,50,-52,18
0.181939,72,-192,8346,25,-65,-45
0.182077,28,-119,8352,38,-52,18
0.182217,21,-115,8336,12,-77,-77
0.182356,79,-136,8338,25,-39,12
0.182495,-36,-134,8328,88,-77,-45
0.182634,17,-117,8332,12,-84,12
0.182774,-2,-112,8317,44,-71,-20
0.182913,43,-110,8295,50,-65,-26
0.183054,35,-116,8281,0,-90,-45
0.183192,3,-165,8305,63,-58,5
0.183331,40,-190,8325,56,-77,-64
0.183473,11,-180,8359,12,-58,-13
0.18361,48,-169,8320,56,-97,-7
0.183749,30,-106,8275,25,-26,-20
0.183889,79,-106,8283,50,-103,-51
0.184029,12,-189,8314,56,-77,-20
0.184167,80,-132,8292,56,-46,-32
0.184306,17,-82,8279,6,-52,5
0.184445,83,-90,8306,69,-65,-39
0.184585,13,-112,8337,19,-84,-26
0.184724,-29,-98,8289,75,-71,-1
0.184864,27,-144,8279,44,-65,-26
0.185003,-2,-159,8259,25,-71,-32
0.185142,27,-176,8268,88,-97,-20
0.185281,42,-84,8280,0,-39,5
0.185421,40,-111,8321,82,-97,-77
0.18556,13,-155,8307,-6,-46,18
0.1857,53,-138,8321,50,-52,-26
0.185839,55,-121,8286,82,-109,-32
0.185978,-18,-119,8330,6,-77,-26
0.186117,-8,-143,8327,38,-52,24
0.186257,-39,-148,8323,44,-84,-70
0.186396,41,-150,8308,38,-65,12
0.186535,22,-114,8303,69,-46,-32
0.186674,25,-149,8312,31,-97,-64
0.186814,85,-118,8293,19,-58,24
0.186953,-8,-90,8270,82,-90,-32
0.187093,35,-118,8297,25,-71,-26
0.187232,16,-108,8331,63,-97,-26
0.187371,25,-129,8282,12,-26,-1
0.18751,35,-126,8258,56,-77,-32
0.18765,37,-109,8297,56,-71,-1
0.187789,-41,-125,8272,6,-58,-1
0.187928,25,-133,8242,75,-90,-32
0.188068,29,-112,8297,56,-84,-51
0.188207,70,-122,8310,38,-39,31
0.188346,37,-112,8310,25,-84,-64
0.188487,21,-159,8320,63,-84,-1
0.188625,4,-149,8239,44,-33,-26
0.188766,14,-127,8271,38,-71,-20
0.188904,22,-118,8290,31,-90,-1
0.189043,22,-95,8293,50,-103,-45
0.189183,-7,-169,8284,56,-46,-26
0.189321,79,-144,8305,6,-77,-13
0.18946,39,-104,8339,69,-65,5
0.1896,16,-109,8289,50,-84,-64
0.189739,25,-177,8334,44,-58,12
0.189878,54,-133,8328,31,-84,-51
0.190018,25,-92,8339,25,-65,37
0.190157,52,-166,8293,88,-84,-102
0.190296,73,-126,8262,19,-52,37
0.190436,39,-148,8336,63,-90,-58
0.190575,-10,-120,8314,56,-65,-1
0.190714,-1,-123,8323,50,-52,-7
0.190854,11,-122,8294,50,-97,-64
0.190992,-13,-179,8370,38,-52,-1
0.191132,80,-157,8292,56,-77,-26
0.191272,81,-182,8321,38,-71,-1
0.191411,7,-201,8291,50,-65,-13
0.19155,-23,-154,8295,56,-90,-32
0.191691,30,-168,8240,-19,-39,-20
0.191829,10,-132,8320,56,-90,-13
0.191968,-11,-158,8339,82,-97,-1
0.192109,8,-123,8288,31,-52,-64
0.192247,24,-209,8320,12,-58,24
0.192386,-3,-117,8321,88,-109,-70
0.192525,27,-116,8326,-6,-14,18
0.192665,38,-146,8284,63,-116,-64
0.192804,8,-105,8356,50,-71,5
0.192944,26,-112,8319,50,-97,-51
0.193083,54,-133,8242,12,-14,-1
0.193224,45,-143,8362,56,-90,5
0.193365,22,-130,8292,44,-77,-45
0.193501,62,-133,8339,44,-65,-32
0.19364,39,-170,8304,50,-97,-20
0.19378,11,-200,8274,12,-33,-20
0.193919,18,-151,8300,50,-65,-20
0.194058,33,-112,8286,69,-103,-32
0.194199,61,-109,8251,-19,-26,5
0.194337,-28,-158,8321,69,-84,-26
0.194476,49,-137,8366,50,-58,-45
0.194615,42,-115,8320,25,-46,18
0.194754,30,-131,8288,12,-97,-39
0.194894,-4,-103,8292,44,-58,-32
0.195033,10,-112,8297,44,-46,-13
0.195172,61,-136,8276,69,-90,-70
0.195312,61,-94,8356,38,-71,24
0.195451,31,-130,8329,31,-58,-32
0.19559,57,-129,8314,44,-90,-13
0.19573,-3,-170,8320,69,-77,-39
0.195869,53,-138,8306,6,-65,-1
0.196008,35,-138,8350,82,-65,-51
0.196148,20,-113,8353,44,-90,24
0.196287,15,-140,8279,31,-65,-51
0.196426,29,-185,8334,38,-77,-39
0.196566,8,-145,8321,69,-77,-26
0.196705,47,-109,8317,31,-71,18
0.196844,21,-117,8320,44,-77,-26
0.196983,-1,-143,8296,50,-65,-45
0.197123,16,-149,8310,12,-46,5
0.197262,26,-116,8281,94,-97,-45
0.197401,12,-120,8302,19,-65,-32
0.197541,26,-125,8333,75,-84,-13
0.19768,23,-128,8306,25,-33,-32
0.197819,32,-95,8314,31,-90,18
0.197958,47,-68,8326,56,-71,-83
0.198098,-5,-106,8330,31,-65,31
0.198237,-19,-181,8373,50,-84,-39
0.198376,12,-143,8354,38,-14,-7
0.198516,53,-86,8272,63,-154,-77
0.198655,70,-54,8265,6,-14,24
0.198795,-35,-153,8346,69,-109,-39
0.198934,-24,-130,8328,44,-58,-26
0.199073,44,-81,8303,75,-39,-13
0.199213,63,-136,8307,-25,-65,-7
0.199351,47,-145,8315,88,-128,-45
0.199491,65,-114,8242,19,-20,5
0.19963,36,-105,8319,63,-65,-51
0.199769,46,-92,8311,12,-90,12
0.199909,22,-166,8254,63,-46,-39
0.200048,49,-95,8285,56,-84,-13
0.200187,82,-159,8339,6,-20,-26
0.200328,4,-96,8346,82,-122,-32
0.200465,25,-128,8256,12,-46,18
0.200606,38,-133,8297,38,-103,-70
0.200745,37,-191,8315,50,-58,18
0.200885,-5,-121,8267,25,-77,-39
0.201023,39,-87,8285,82,-58,-13
0.201163,11,-136,8336,25,-58,-20
0.201302,22,-138,8305,50,-71,-39
0.201441,21,-176,8326,38,-39,5
0.201581,20,-147,8357,25,-103,-64
0.201721,9,-136,8297,31,-46,37
0.201859,-33,-133,8317,69,-71,-83
0.201999,-26,-118,8248,6,-39,18
0.202138,-7,-127,8313,44,-77,-20
0.202277,51,-162,8296,56,-65,-13
0.202416,15,-115,8287,69,-58,-51
0.202556,10,-134,8274,0,-77,-13
0.202695,41,-132,8303,82,-58,-13
0.202834,32,-120,8265,31,-84,-20
0.202974,25,-137,8304,69,-77,-1
0.203113,103,-135,8308,19,-26,-32
0.203252,58,-140,8266,69,-122,-26
0.203391,18,-131,8309,12,-33,5
0.203531,67,-153,8288,75,-77,-45
0.20367,51,-146,8311,38,-90,-7
0.20381,4,-129,8305,44,-58,-51
0.203949,26,-123,8238,25,-58,-7
0.204088,19,-94,8288,56,-97,12
0.204227,1,-89,8291,19,-71,-26
0.204367,83,-112,8256,75,-90,-58
0.204507,44,-88,8283,25,-33,18
0.204646,26,-145,8222,38,-65,-45
0.204785,44,-138,8295,69,-103,12
0.204924,32,-81,8321,6,-33,-32
0.205063,35,-130,8303,31,-90,-39
0.205203,55,-119,8273,88,-90,-20
0.205342,40,-164,8267,44,-46,-7
0.205481,13,-171,8288,19,-52,-32
0.205622,22,-174,8359,44,-65,-7
0.20576,-8,-149,8279,50,-109,-58
0.205899,-31,-95,8290,56,-52,-39
0.206038,19,-124,8305,19,-84,12
0.206178,16,-140,8354,44,-58,-51
0.206317,19,-174,8327,50,-52,-1
0.206457,108,-91,8278,63,-116,-39
0.206596,17,-121,8324,-13,-39,12
0.206735,30,-125,8322,88,-65,-13
0.206874,49,-131,8356,44,-97,-45
0.207014,6,-163,8302,25,-52,-20
0.207153,74,-114,8250,94,-109,-26
0.207292,25,-113,8273,-6,-39,-13
0.207432,5,-134,8280,63,-77,-45
0.207571,34,-80,8266,0,-52,18
0.20771,12,-129,8304,69,-77,-20
0.20785,40,-116,8284,75,-103,-51
0.207989,28,-176,8263,38,-71,-39
0.208128,41,-147,8303,6,-20,37
0.208268,1,-120,8308,44,-84,-45
0.208407,6,-91,8308,82,-103,-20
0.208549,29,-143,8294,12,-46,-7
0.208685,55,-112,8289,50,-65,-39
0.208824,35,-127,8266,25,-58,-1
0.208965,-23,-135,8309,56,-97,-32
0.209103,23,-125,8326,31,-77,-45
0.209243,68,-128,8308,31,-26,18
0.209382,42,-119,8319,31,-97,-51
0.209521,33,-81,8327,44,-46,-26
0.20966,42,-141,8296,38,-71,37
0.2098,41,-126,8292,38,-84,-83
0.20994,62,-95,8299,44,-71,-13
0.210081,53,-150,8342,88,-71,-13
0.210218,-20,-127,8318,-6,-65,-39
0.210357,-1,-111,8289,50,-109,31
0.210497,37,-126,8309,56,-58,-45
0.210636,54,-138,8277,38,-65,-13
0.210775,14,-109,8310,38,-77,-20
0.210915,43,-74,8302,44,-71,-26
0.211054,-2,-160,8312,25,-90,-20
0.211193,3,-157,8361,88,-33,5
0.211334,51,-160,8296,0,-103,-64
0.211471,-5,-113,8332,69,-46,5
0.211611,48,-139,8318,63,-65,-26
0.21175,35,-182,8330,25,-77,-32
0.211892,32,-181,8361,31,-71,12
0.212029,-35,-131,8298,25,-46,-32
0.212168,48,-114,8294,75,-103,-20
0.212308,-7,-181,8322,50,-65,-7
0.212448,40,-118,8330,31,-58,-39
0.212586,56,-118,8326,19,-58,-13
0.212725,18,-135,8341,75,-84,-32
0.212865,-3,-131,8310,12,-58,5
0.213004,4,-165,8323,44,-84,-70
0.213143,5,-152,8263,50,-58,12
0.213283,36,-164,8343,56,-71,-32
0.213422,4,-140,8356,31,-103,-32
0.213561,8,-117,8369,56,-52,-32
0.213701,16,-144,8360,19,-46,5
0.21384,15,-108,8312,25,-46,-1
0.213979,16,-135,8322,94,-103,-64
0.214119,26,-90,8300,12,-39,12
0.214258,4,-159,8315,31,-97,-7
0.214397,-11,-113,8280,63,-46,-39
0.214536,42,-151,8274,38,-52,-7
0.214676,-2,-150,8281,44,-97,-26
0.214815,18,-130,8279,31,-58,-20
0.214954,59,-162,8267,88,-90,-26
0.215094,14,-161,8294,19,-14,-7
0.215233,24,-144,8296,19,-109,-26
0.215372,47,-122,8336,69,-65,-39
0.215512,42,-94,8298,19,-58,5
0.215656,37,-143,8283,50,-71,-51
0.21579,52,-142,8337,19,-71,-1
0.215929,16,-139,8342,50,-52,-20
0.216069,33,-85,8338,44,-71,-32
0.216208,12,-123,8339,31,-77,-20
0.216347,35,-130,8368,44,-77,-1
0.216487,6,-130,8330,94,-97,-58
0.216626,16,-154,8337,-13,-39,12
0.216765,42,-113,8276,63,-58,-32
0.216905,5,-138,8309,63,-103,-45
0.217044,11,-128,8278,44,-46,-20
0.217183,54,-142,8311,50,-109,-20
0.217323,28,-86,8303,12,-65,-13
0.217462,23,-108,8316,75,-52,-39
0.217601,32,-120,8332,44,-65,-13
0.21774,3,-117,8324,38,-84,-7
0.21788,35,-157,8291,50,-20,-45
0.218019,31,-159,8347,63,-135,-1
0.218158,45,-110,8304,25,-58,-26
0.218298,22,-140,8317,31,-33,-26
0.218437,47,-127,8379,56,-109,-20
0.218576,10,-118,8364,44,-58,-32
0.218716,12,-188,8323,56,-71,-13
0.218856,53,-122,8326,6,-33,12
0.218994,82,-150,8341,63,-90,-77
0.219134,47,-156,8285,31,-46,12
0.219273,63,-115,8273,56,-84,-26
0.219412,26,-111,8294,69,-65,-32
0.219551,38,-90,8287,0,-90,-26
0.219691,51,-96,8317,25,-58,18
0.21983,28,-123,8260,88,-90,-77
0.219969,31,-78,8272,19,-71,31
0.220109,37,-102,8290,63,-52,-45
0.220248,12,-132,8338,6,-58,5
0.220387,22,-156,8299,82,-97,-45
0.220527,34,-83,8302,6,-65,-32
0.220666,-3,-99,8277,63,-33,12
0.220805,19,-105,8341,63,-128,-51
0.220944,68,-155,8304,6,-39,-7
0.221084,37,-137,8308,63,-71,-39
0.221225,13,-149,8280,25,-39,12
0.221367,-1,-193,8315,44,-103,-45
0.221502,50,-168,8270,31,-26,-20
0.221641,88,-123,8319,88,-122,-32
0.221782,25,-168,8318,19,-26,-39
0.22192,2,-176,8287,31,-77,18
0.22206,50,-117,8298,69,-84,-20
0.222199,7,-131,8287,0,-52,-51
0.222338,42,-152,8355,63,-84,-7
0.222477,33,-125,8287,31,-77,-45
0.222616,-30,-89,8301,56,-65,5
0.222756,8,-86,8291,12,-46,-32
0.222895,-37,-98,8283,63,-97,-39
0.223034,26,-137,8295,31,-52,-7
0.223174,23,-142,8291,31,-77,-20
0.223313,42,-122,8320,31,-77,-20
0.223452,66,-114,8265,44,-52,-7
0.223591,37,-120,8324,63,-90,5
0.223731,-12,-165,8321,44,-65,-45
0.22387,10,-144,8356,19,-39,-13
0.224009,38,-150,8348,50,-116,-7
0.224149,17,-140,8321,25,-77,-51
0.224288,43,-109,8274,50,-52,-1
0.224427,35,-177,8305,63,-65,-32
0.224567,-22,-144,8313,38,-122,-20
0.224706,-9,-98,8326,31,-33,-20
0.224845,72,-71,8300,100,-84,-26
0.224984,-41,-102,8335,6,-84,5
0.225124,15,-120,8321,50,-39,-64
0.225263,26,-103,8324,75,-65,18
0.225402,16,-159,8304,6,-71,-20
0.225542,-14,-152,8308,63,-71,-39
0.225681,14,-126,8288,25,-71,-26
0.22582,22,-166,8288,38,-71,5
0.22596,-28,-128,8278,63,-71,-39
0.226099,7,-155,8309,25,-77,-26
0.226238,14,-89,8254,50,-58,18
0.226378,48,-142,8316,63,-77,-58
0.226517,61,-130,8328,12,-46,18
0.226656,10,-73,8284,50,-71,-45
0.226796,7,-96,8309,31,-84,-32
0.226935,41,-161,8310,50,-77,-13
0.227074,26,-141,8284,56,-65,-13
0.227213,22,-125,8378,44,-84,-13
0.227353,-6,-83,8314,12,-65,-13
0.227492,26,-119,8262,88,-71,-32
0.227631,30,-116,8292,6,-71,-7
0.227771,25,-140,8329,94,-71,-64
0.22791,12,-140,8319,25,-58,24
0.228049,25,-125,8296,19,-77,-32
0.228189,55,-124,8294,44,-84,-26
0.228328,38,-134,8350,44,-46,-13
0.228467,23,-113,8321,56,-77,-32
0.228608,36,-143,8304,12,-58,-39
0.228746,10,-122,8286,82,-84,-1
0.228885,-31,-111,8270,31,-58,-13
0.229025,-21,-146,8269,44,-97,-26
0.229164,66,-121,8251,25,-46,-1
0.229303,-1,-112,8308,50,-84,-45
0.229442,14,-126,8320,75,-71,-39
0.229581,30,-133,8305,12,-58,37
0.229721,34,-104,8329,38,-65,-64
0.22986,51,-129,8296,56,-84,-26
0.229999,12,-143,8315,56,-84,5
0.230139,34,-174,8330,12,-39,-32
0.230278,34,-125,8312,38,-71,-51
0.230417,-11,-103,8267,69,-109,-13
0.230558,36,-90,8278,25,-52,24
0.230697,108,-115,8325,50,-46,-83
0.230835,37,-63,8316,44,-84,-1
0.230975,-10,-108,8268,25,-65,-32
0.231115,44,-89,8256,75,-71,-26
0.231253,58,-154,8345,38,-52,12
0.231393,51,-144,8309,25,-58,-45
0.231532,18,-116,8305,63,-90,-26
0.231671,76,-87,8370,50,-84,-1
0.231811,22,-106,8285,19,-20,-26
0.23195,73,-135,8284,94,-116,-13
0.232089,17,-108,8269,-6,-65,-58
0.232228,88,-86,8335,82,-65,18
0.232368,38,-144,8285,0,-71,-20
0.232507,-33,-157,8298,69,-52,-26
0.232646,63,-150,8298,38,-84,-26
0.232786,58,-152,8290,44,-84,-26
0.232925,44,-138,8318,44,-77,-32
0.233064,6,-144,8347,44,-52,-7
0.233204,-43,-63,8311,44,-65,-32
0.233343,29,-90,8298,38,-97,-32
0.233482,58,-160,8326,63,-65,-20
0.233622,11,-126,8306,12,-71,-13
0.233761,-23,-101,8313,44,-65,-45
0.2339,62,-149,8314,63,-84,-32
0.23404,73,-167,8320,12,-58,18
0.234179,-3,-105,8340,82,-97,-45
0.234318,33,-99,8258,19,-26,-7
0.234457,21,-138,8272,63,-109,-32
0.234597,-2,-115,8310,19,-65,-32
0.234736,43,-122,8350,69,-58,-13
0.234875,64,-115,8314,0,-90,-13
0.235015,-9,-160,8319,113,-65,-45
0.235154,-16,-140,8344,-19,-58,24
0.235293,-21,-194,8328,94,-84,-64
0.235433,6,-151,8250,-19,-71,-7
0.235572,35,-166,8323,100,-58,-20
0.235711,10,-172,8362,38,-84,-26
0.235851,-6,-154,8312,6,-46,-13
0.23599,39,-100,8302,75,-103,-26
0.236129,-4,-89,8326,38,-84,-32
0.236268,-5,-103,8299,6,-39,12
0.236408,18,-73,8266,132,-122,-45
0.236547,41,-116,8337,-13,-39,-20
0.236686,-22,-127,8336,12,-33,5
0.236826,24,-120,8286,107,-116,-70
0.236965,51,-120,8296,0,-26,5
0.237104,-5,-177,8285,50,-90,-20
0.237244,52,-137,8273,56,-90,-32
0.237383,3,-105,8299,25,-58,-26
0.237522,46,-192,8312,75,-77,5
0.237662,51,-143,8310,-13,-77,-32
0.237801,49,-112,8294,94,-58,-32
0.23794,-37,-165,8302,25,-84,12
0.238079,19,-150,8269,38,-33,-39
0.238219,45,-90,8246,50,-103,-51
0.238359,28,-151,8280,0,-46,31
0.238497,38,-131,8269,94,-39,-26
0.238637,13,-107,8335,63,-128,-58
0.238776,25,-136,8267,6,-26,-20
0.238915,48,-131,8254,44,-90,18
0.239055,32,-114,8284,44,-90,-64
0.239194,7,-169,8299,38,-39,5
0.239333,34,-159,8257,63,-103,-39
0.239473,-35,-230,8275,12,-46,-7
0.239612,-31,-136,8321,69,-58,-45
0.239751,7,-131,8298,56,-97,5
0.23989,9,-116,8274,0,-71,-45
0.24003,19,-169,8283,69,-77,-7
0.240169,89,-165,8340,31,-46,-39
0.240308,22,-107,8329,94,-77,5
0.240448,36,-111,8273,-19,-71,-20
0.240587,-10,-142,8261,113,-52,-39
0.240726,-79,-145,8302,-44,-84,18
0.240866,13,-96,8253,100,-71,-51
0.241005,51,-141,8320,6,-71,-13
0.241144,25,-92,8368,63,-109,-39
0.241284,6,-64,8294,6,-20,12
0.241423,26,-160,8283,69,-103,-32
0.241562,43,-144,8251,63,-65,-26
0.241701,61,-118,8248,31,-71,-20
0.241841,54,-101,8279,31,-71,-20
0.24198,0,-117,8265,82,-90,-39
0.242119,27,-169,8315,0,-20,-1
0.242259,84,-190,8314,50,-77,-26
0.242398,49,-195,8290,38,-90,-1
0.242537,38,-132,8292,56,-52,-70
0.242677,29,-86,8279,12,-52,12
0.242816,-20,-132,8347,69,-109,-51
0.242955,41,-72,8320,38,-71,-1
0.243095,69,-131,8261,82,-52,-51
0.243234,45,-111,8308,-25,-65,-7
0.243373,22,-123,8306,100,-65,-7
0.243513,10,-141,8302,31,-77,-39
0.243652,15,-129,8320,19,-71,-39
0.243791,50,-159,8325,75,-77,18
0.24393,-6,-92,8263,50,-52,-45
0.24407,18,-124,8318,38,-65,-39
0.244209,17,-73,8288,6,-77,18
0.244348,5,-155,8306,82,-90,-45
0.244488,16,-111,8317,38,-14,-32
0.244627,3,-96,8251,31,-77,-1
0.244766,10,-112,8291,100,-116,-64
0.244906,26,-120,8291,-6,-7,18
0.245045,26,-149,8288,63,-116,-64
0.245184,31,-124,8310,6,-20,18
0.245324,46,-75,8319,69,-77,-58
0.245463,68,-154,8298,25,-97,12
0.245602,55,-118,8287,75,-71,-58
0.245741,33,-108,8330,38,-33,24
0.245881,34,-89,8325,19,-97,-64
0.24602,7,-79,8271,75,-77,24
0.246159,-1,-127,8261,25,-77,-51
0.246299,-20,-161,8316,75,-77,-7
0.246438,16,-157,8305,0,-52,-32
0.246577,52,-177,8344,56,-52,-1
0.246717,21,-123,8285,25,-103,-51
0.246856,-14,-131,8275,50,-65,-13
0.246995,21,-72,8318,25,-84,-1
0.247135,69,-102,8274,50,-65,-26
0.247274,30,-128,8338,38,-71,-32
0.247413,-12,-115,8350,69,-90,-13
0.247552,50,-124,8284,56,-71,-45
0.247692,57,-114,8279,-6,-71,-13
0.247831,-14,-135,8319,94,-103,-26
0.24797,16,-141,8260,-6,-33,5
0.24811,22,-136,8281,82,-97,-45
0.248249,40,-166,8300,31,-58,-7
0.248388,16,-130,8299,69,-58,-32
0.248528,22,-79,8274,44,-84,-13
0.248667,-22,-116,8282,50,-97,-70
0.248806,-12,-132,8273,12,-58,56
0.248946,-8,-106,8259,44,-84,-64
0.249085,16,-128,8318,63,-58,-20
0.249224,62,-161,8303,56,-97,-26
0.249364,22,-158,8282,19,-58,12
0.249503,9,-167,8332,44,-65,-64
0.249642,32,-104,8278,50,-71,18
0.249781,61,-121,8251,38,-77,-13
0.249921,26,-170,8320,38,-58,-58
0.25006,46,-166,8318,56,-97,-1
0.250199,79,-107,8327,56,-77,-32
0.250339,54,-101,8288,50,-52,-1
0.250478,34,-102,8274,19,-71,-45
0.250617,92,-148,8299,63,-58,-45
0.250757,-56,-160,8308,31,-71,24
0.250896,58,-129,8329,69,-58,-13
0.251035,-9,-162,8292,25,-84,-45
0.251175,14,-130,8326,56,-71,-26
0.251314,24,-116,8341,31,-65,-7
0.251453,29,-148,8340,69,-103,-20
0.251592,-4,-173,8282,19,-33,-20
0.251732,73,-145,8321,56,-65,-26
0.251871,33,-171,8349,38,-71,-39
0.25201,-22,-137,8312,44,-103,-7
0.25215,3,-118,8303,31,-71,-20
0.252289,40,-126,8310,56,-52,-13
0.252428,7,-139,8363,19,-77,-1
0.252568,-2,-158,8361,69,-84,-70
0.252707,-8,-145,8320,25,-71,43
0.252846,-10,-130,8324,56,-77,-58
0.252986,34,-62,8304,31,-58,-32
0.253125,24,-130,8292,38,-52,18
0.253264,79,-110,8314,56,-84,-58
0.253403,5,-100,8299,56,-97,-7
0.253543,-31,-127,8314,31,-33,-26
0.253682,3,-126,8346,63,-103,-32
0.253821,-3,-168,8312,38,-26,24
0.253961,19,-127,8284,44,-103,-64
0.2541,18,-67,8292,12,-39,-7
0.254239,23,-140,8281,82,-116,-20
0.254379,-23,-91,8319,0,-58,-32
0.254518,31,-130,8301,88,-65,-7
0.254657,56,-140,8348,38,-84,-20
0.254797,-25,-100,8330,38,-39,-13
0.254936,8,-88,8256,63,-77,-39
0.255075,27,-92,8257,44,-65,-13
0.255214,10,-118,8288,50,-71,-58
0.255354,35,-165,8274,50,-58,12
0.255493,47,-106,8328,-13,-58,-1
0.255632,-12,-101,8318,100,-71,-39
0.255772,-18,-135,8290,38,-97,-39
0.255911,1,-118,8373,19,-39,-1
0.25605,16,-115,8366,75,-90,-51
0.25619,-2,-110,8332,-6,-52,31
0.256329,10,-108,8340,100,-109,-58
0.256468,-16,-130,8332,31,-39,-1
0.256608,23,-118,8340,12,-84,-32
0.256747,60,-134,8286,69,-71,-26
0.256886,-38,-72,8287,12,-65,5
0.257025,4,-148,8304,56,-65,-70
0.257165,51,-190,8284,31,-39,12
0.257304,6,-128,8255,69,-77,-32
0.257445,60,-165,8298,38,-52,-45
0.257583,44,-118,8277,12,-77,18
0.257724,8,-96,8293,69,-65,-45
0.257861,47,-96,8315,50,-90,-13
0.258001,-5,-134,8313,50,-20,-45
0.258147,-31,-105,8288,31,-77,-1
0.258279,-6,-112,8275,56,-77,-26
0.25842,43,-127,8279,12,-58,-13
0.258558,41,-177,8307,56,-65,-58
0.258697,47,-183,8277,38,-58,18
0.258837,-2,-104,8313,56,-65,-58
0.258976,67,-152,8272,56,-77,-7
0.259115,-10,-141,8303,50,-58,-39
0.259254,6,-138,8268,6,-39,18
0.259394,0,-89,8293,69,-122,-64
0.259534,38,-82,8236,31,-33,18
0.259673,20,-119,8299,38,-71,-51
0.259812,48,-113,8280,25,-58,-7
0.259951,-29,-185,8263,63,-46,-7
0.260091,61,-181,8294,19,-128,-64
0.26023,34,-138,8326,31,-33,-1
0.260369,21,-134,8304,75,-84,-39
0.260508,70,-138,8297,0,-71,-7
0.260649,61,-107,8266,75,-71,-13
0.260788,18,-115,8273,38,-77,-51
0.260927,12,-103,8288,38,-39,5
0.261067,-3,-167,8283,69,-90,-64
0.261206,-6,-130,8280,25,-77,18
0.261344,35,-77,8303,56,-71,-32
0.261483,6,-91,8289,31,-52,-20
0.261625,9,-139,8326,38,-84,-13
0.261763,29,-180,8328,50,-58,12
0.261903,16,-113,8332,38,-84,-39
0.262041,38,-109,8313,31,-52,-13
0.26218,43,-110,8317,75,-77,-26
0.262319,18,-78,8314,12,-71,-39
0.262459,40,-102,8264,63,-65,18
0.262598,46,-113,8281,50,-77,-51
0.262737,14,-98,8294,0,-20,-32
0.262876,13,-130,8308,88,-103,-1
0.263016,-55,-102,8339,50,-103,-39
0.263155,-32,-107,8326,0,-26,-20
0.263294,9,-171,8339,75,-90,-1
0.263434,19,-151,8298,50,-65,-20
0.263573,16,-146,8312,-13,-65,-45
0.263712,1,-119,8319,82,-77,5
0.263851,18,-138,8317,38,-52,-20
0.263991,9,-128,8290,44,-71,-64
0.26413,-25,-88,8312,19,-46,43
0.264269,24,-118,8290,56,-109,-58
0.264409,35,-119,8294,0,-58,5
0.264548,39,-120,8321,75,-71,-32
0.264687,49,-118,8338,44,-46,-7
0.264827,4,-117,8302,56,-84,-20
0.264966,33,-97,8289,25,-65,-32
0.265106,41,-135,8333,38,-71,12
0.265245,-6,-163,8355,44,-77,-77
0.265384,41,-89,8278,25,-46,43
0.265523,41,-101,8326,69,-116,-89
0.265664,27,-63,8304,25,-39,50
0.265803,13,-92,8270,75,-77,-45
0.265942,22,-99,8333,38,-71,-1
0.266081,60,-94,8347,56,-90,-58
0.26622,29,-85,8284,19,-46,31
0.266359,36,-128,8296,38,-84,-58
0.266498,32,-128,8288,44,-46,-7
0.26664,43,-148,8287,75,-103,-64
0.266777,33,-131,8319,19,-1,43
0.266916,33,-107,8300,63,-97,-58
0.267056,49,-132,8313,50,-71,-1
0.267197,-2,-130,8291,31,-58,-39
0.267334,-39,-101,8257,-13,-26,-26
0.267474,46,-156,8246,88,-135,-13
0.267614,88,-119,8288,44,-7,-7
0.267753,55,-122,8326,12,-77,-58
0.267892,31,-105,8331,88,-71,-13
0.268032,6,-187,8253,12,-26,12
0.26817,12,-158,8344,56,-97,-32
0.268311,55,-146,8338,0,-26,12
0.268449,27,-167,8311,50,-97,-58
0.268588,29,-162,8294,50,-39,5
0.268728,21,-105,8310,44,-90,-58
0.268867,-34,-129,8307,38,-39,12
0.269006,21,-97,8320,31,-90,-51
0.269147,57,-204,8323,25,-71,5
0.269285,6,-139,8334,63,-65,-26
0.269424,55,-134,8306,44,-84,-39
0.269563,32,-115,8321,12,-52,-7
0.269703,-24,-190,8366,75,-52,-13
0.269842,18,-142,8308,31,-97,-83
0.269981,-1,-140,8323,63,-58,56
0.27012,2,-111,8300,31,-90,-83
0.27026,59,-114,8302,50,-52,12
0.270399,8,-79,8356,56,-84,-51
0.270539,65,-116,8326,31,-65,12
0.27068,22,-160,8320,56,-90,-32
0.270817,25,-67,8326,25,-33,-26
0.270956,51,-114,8327,38,-90,-20
0.271097,48,-125,8262,50,-90,-39
0.271235,-12,-162,8314,38,-52,5
0.271374,-11,-175,8287,38,-77,-13
0.271513,-10,-179,8329,69,-52,-64
0.271653,54,-86,8306,19,-109,-7
0.271794,12,-117,8320,31,-65,-7
0.271932,32,-168,8283,69,-33,-26
0.272071,15,-135,8292,6,-103,-20
0.27221,50,-84,8317,75,-71,-39
0.272349,47,-123,8273,19,-84,-1
0.272489,7,-162,8357,63,-58,-70
0.272628,7,-129,8318,12,-46,37
0.272767,4,-136,8314,56,-84,-51
0.272907,41,-133,8304,50,-58,-7
0.273046,-14,-124,8325,31,-71,-13
0.273185,20,-89,8360,56,-46,-58
0.273325,59,-84,8326,19,-90,18
0.273464,-29,-120,8321,75,-71,-51
0.273605,50,-102,8307,12,-52,-1
0.273742,25,-142,8314,19,-58,-32
0.273884,30,-141,8313,75,-90,-13
0.274021,-11,-153,8304,44,-46,-20
0.274161,-36,-145,8308,38,-84,-45
0.2743,20,-127,8340,0,-77,12
0.274441,88,-121,8316,94,-39,-39
0.274578,53,-109,8314,38,-58,5
0.274718,39,-85,8282,44,-77,-39
0.274857,9,-136,8301,50,-77,-32
0.274996,-59,-151,8289,50,-39,-13
0.275136,22,-127,8302,19,-65,5
0.275275,62,-144,8265,50,-103,-70
0.275414,39,-113,8296,38,-58,18
0.275554,28,-90,8345,50,-84,-45
0.275693,13,-126,8338,44,-71,-13
0.275832,-25,-173,8322,38,-46,-13
0.275972,29,-156,8311,38,-58,-20
0.276111,62,-110,8295,63,-103,-26
0.276254,13,-139,8264,50,-46,-26
0.276389,-77,-96,8308,63,-97,-39
0.276529,-21,-82,8276,50,-71,-20
0.276668,9,-137,8296,6,-46,-7
0.276808,38,-116,8272,56,-84,-13
0.276947,1,-130,8236,38,-77,-58
0.277086,22,-118,8249,38,-65,12
0.277226,17,-155,8306,69,-77,-26
0.277365,26,-130,8264,12,-65,-13
0.277504,44,-132,8293,56,-46,-45
0.277643,40,-190,8342,56,-109,24
0.277783,13,-135,8284,25,-58,-45
0.277922,10,-102,8281,82,-103,-20
0.278061,46,-87,8299,12,-39,-13
0.278201,20,-99,8330,56,-90,-20
0.27834,12,-132,8311,19,-39,-26
0.278479,-29,-136,8282,69,-109,-13
0.278618,13,-98,8283,12,-46,-7
0.278758,10,-118,8285,63,-52,-70
0.278897,42,-190,8299,50,-97,-1
0.279036,39,-140,8244,31,-71,-1
0.279176,22,-118,8305,69,-71,-39
0.279315,43,-178,8365,31,-84,-39
0.279454,43,-149,8341,38,-46,-20
0.279593,10,-120,8311,44,-90,-7
0.279733,-20,-143,8266,56,-71,-26
0.279873,-27,-142,8325,25,-52,-20
0.280012,-4,-95,8293,50,-97,-39
0.280151,39,-120,8268,56,-52,12
0.28029,19,-132,8315,-6,-71,-13
0.280429,7,-94,8300,144,-116,-58
0.280569,43,-134,8350,-44,-39,31
0.280708,68,-135,8332,88,-46,-83
0.280847,7,-128,8354,50,-135,5
0.280987,6,-169,8363,38,-52,-26
0.281126,39,-128,8282,19,-71,-20
0.281265,32,-136,8376,75,-71,-26
0.281405,37,-94,8248,50,-97,-45
0.281545,36,-137,8298,12,-33,5
0.281684,27,-98,8361,56,-97,-51
0.281823,62,-120,8278,63,-65,-1
0.281962,24,-137,8304,44,-65,-26
0.282101,-11,-85,8278,0,-52,-7
0.28224,29,-126,8295,88,-97,-39
0.28238,10,-130,8285,0,-33,5
0.282519,45,-146,8327,44,-52,-45
0.282659,52,-110,8254,94,-90,-20
0.282798,12,-139,8315,12,-58,-39
0.282937,16,-138,8320,12,-71,-7
0.283077,78,-123,8353,56,-20,-1
0.283216,54,-130,8324,69,-109,-51
0.283356,57,-104,8329,19,-65,-7
0.283494,41,-137,8352,50,-39,-45
0.283634,23,-99,8270,56,-103,-1
0.283773,14,-118,8282,31,-33,-32
0.283912,-8,-134,8305,6,-71,-7
0.284052,49,-164,8322,113,-65,-32
0.284191,24,-77,8285,-6,-65,-26
0.28433,79,-116,8268,56,-71,-13
0.28447,-15,-101,8332,44,-58,-20
0.284609,28,-140,8304,12,-90,5
0.284748,59,-152,8269,75,-71,-26
0.284887,18,-140,8280,50,-109,-64
0.285027,6,-139,8283,63,-39,5
0.285166,40,-144,8329,19,-71,5
0.285305,34,-126,8313,31,-77,-45
0.285445,56,-132,8294,63,-52,-26
0.285584,61,-164,8317,44,-103,-51
0.285723,12,-114,8362,31,-1,18
0.285863,24,-110,8297,88,-141,-45
0.286004,49,-117,8278,19,-26,-20
0.286141,14,-80,8259,75,-84,-26
0.28628,5,-87,8298,25,-39,12
0.286421,-24,-115,8306,56,-77,-32
0.286559,2,-76,8330,38,-58,-26
0.286698,7,-148,8309,25,-90,-32
0.286838,-8,-203,8327,56,-90,5
0.286978,70,-175,8260,19,-33,-26
0.287116,-7,-130,8260,69,-71,-20
0.287256,-50,-122,8308,38,-84,-26
0.287396,67,-104,8333,56,-52,-26
0.287534,25,-140,8303,31,-84,-20
0.287674,47,-98,8326,63,-65,-32
0.287813,37,-117,8366,19,-77,5
0.287952,22,-137,8314,38,-65,-39
0.288092,21,-93,8304,113,-71,-32
0.288231,49,-124,8367,-13,-58,12
0.28837,50,-111,8306,63,-77,-64
0.28851,36,-132,8367,19,-84,5
0.288649,35,-156,8325,107,-58,-26
0.288788,24,-137,8292,-19,-52,-32
0.288928,21,-146,8317,82,-71,-20
0.289067,42,-133,8253,19,-33,12
0.289206,41,-127,8278,56,-97,-58
0.289347,20,-157,8278,38,-90,-13
0.289484,14,-207,8305,44,-20,-1
0.289625,23,-153,8313,31,-109,-45
0.289763,5,-156,8344,69,-46,-13
0.289902,17,-149,8338,50,-109,-39
0.290043,-5,-181,8309,31,-46,-13
0.290181,38,-118,8304,25,-84,5
0.29032,-22,-103,8375,94,-84,-77
0.290459,19,-115,8283,-6,-58,12
0.290599,10,-97,8243,38,-84,-1
0.290738,21,-101,8301,107,-90,-51
0.290877,34,-95,8344,-25,-33,-32
0.291017,29,-124,8319,107,-103,12
0.291156,-7,-140,8309,-19,-58,-51
0.291295,-43,-145,8304,69,-90,-20
0.291435,-10,-153,8320,44,-77,-20
0.291575,-13,-121,8268,38,-65,-26
0.291714,2,-164,8322,50,-90,-26
0.291853,33,-142,8293,6,-33,-1
0.291993,36,-119,8288,100,-84,-51
0.292131,62,-172,8299,-19,-46,-1
0.292271,39,-177,8331,82,-77,-64
0.29241,82,-136,8304,50,-58,5
0.292549,64,-131,8291,12,-52,-45
0.292689,69,-121,8281,38,-90,-1
0.292828,8,-79,8278,63,-33,-20
0.292969,39,-178,8287,-6,-109,-26
0.293106,24,-127,8275,82,-26,-13
0.293246,48,-115,8280,56,-71,-20
0.293385,46,-122,8285,25,-58,-13
0.293526,28,-100,8333,31,-77,-26
0.293664,55,-154,8313,44,-33,-45
0.293803,70,-124,8268,38,-90,31
0.293942,41,-117,8357,56,-103,-51
0.294082,72,-97,8302,56,-46,-13
0.294221,44,-118,8326,12,-71,-39
0.294364,-21,-106,8285,56,-84,5
0.2945,50,-156,8292,12,-71,-32
0.294639,21,-155,8335,69,-52,-20
0.294778,71,-88,8301,50,-90,-45
0.294918,-11,-179,8301,31,-71,-7
0.295057,26,-111,8298,56,-52,-13
0.295196,8,-125,8339,12,-58,-26
0.295336,-21,-94,8342,75,-58,-13
0.295475,12,-101,8308,6,-90,-13
0.295614,29,-98,8330,82,-46,-51
0.295754,38,-91,8276,38,-84,5
0.295893,63,-152,8313,44,-90,-45
0.296032,33,-86,8287,56,-46,-1
0.296171,34,-83,8278,6,-33,-7
0.296311,43,-89,8315,69,-109,-64
0.29645,43,-151,8328,44,-65,-1
0.296589,16,-122,8278,12,-58,-32
0.296729,38,-149,8289,63,-97,-26
0.296868,27,-118,8279,31,-26,-1
0.297007,49,-100,8292,56,-109,-58
0.297147,49,-129,8283,6,-52,24
0.297286,91,-169,8260,56,-71,-58
0.297425,61,-108,8288,31,-58,5
0.297565,12,-78,8284,69,-84,-45
0.297704,47,-136,8319,31,-46,-13
0.297843,40,-151,8335,31,-103,-20
0.297982,59,-116,8275,31,-65,-13
0.298122,14,-140,8294,44,-77,-7
0.298261,27,-172,8290,56,-39,-51
0.2984,36,-110,8260,69,-116,-7
0.29854,37,-158,8270,-13,-71,-13
0.298679,3,-128,8333,100,-58,-7
0.298818,-40,-127,8323,12,-46,-58
0.298957,-32,-116,8311,19,-128,24
0.299097,-14,-124,8335,56,-58,-51
0.299236,9,-153,8377,31,-65,5
0.299375,-14,-44,8313,75,-84,-45
0.299516,37,-83,8283,44,-52,-26
0.299654,57,-122,8336,19,-90,5
0.299793,-17,-180,8315,50,-65,-39
0.299934,55,-75,8326,31,-77,-20
0.300072,23,-122,8318,38,-77,-1
0.300211,2,-118,8317,69,-77,-45
0.300351,72,-103,8299,56,-65,-7
0.30049,62,-98,8338,12,-46,-20
0.300629,56,-143,8344,56,-58,-20
0.300768,47,-114,8330,38,-97,-39
0.300908,61,-134,8312,56,-90,-26
0.301047,-2,-124,8316,44,-39,12
0.301186,-4,-91,8303,69,-97,-51
0.301326,44,-126,8342,-13,-52,-1
0.301465,34,-49,8258,94,-103,-26
0.301606,-38,-116,8293,6,-26,-13
0.301745,1,-162,8320,63,-122,-13
0.301884,-21,-156,8355,25,-52,-26
0.302022,29,-97,8344,82,-77,-39
0.302162,18,-97,8299,0,-52,-7
0.302301,36,-90,8292,88,-71,-1
0.30244,46,-59,8297,25,-103,-39
0.30258,45,-99,8345,44,-33,-20
0.30272,24,-175,8330,50,-116,-64
0.302863,45,-169,8372,12,-52,24
0.302999,-7,-103,8337,50,-52,-32
0.303137,8,-78,8301,31,-84,-20
0.303276,-41,-169,8301,56,-90,-20
0.303416,32,-147,8312,31,-33,-32
0.303555,0,-137,8267,88,-97,-13
0.303695,41,-163,8329,0,-65,24
0.303834,61,-165,8355,56,-103,-70
0.303973,42,-121,8323,56,-39,24
0.304112,85,-72,8311,31,-65,-58
0.304251,3,-126,8344,69,-84,-13
0.304391,5,-57,8293,6,-52,-1
0.30453,46,-95,8319,82,-84,-39
0.30467,48,-135,8313,12,-90,5
0.30481,-10,-166,8301,50,-46,-58
0.304948,16,-139,8313,0,-65,-13
0.305087,64,-113,8327,56,-77,-13
0.305227,19,-97,8310,56,-58,-32
0.305366,47,-106,8302,-6,-52,-7
0.305505,41,-126,8331,94,-122,-64
0.305644,43,-124,8330,19,-52,31
0.305784,84,-138,8294,25,-52,-64
0.305923,20,-146,8313,56,-103,5
0.306062,-54,-136,8300,12,-39,-26
0.306202,17,-139,8289,50,-71,5
0.306341,24,-137,8300,88,-77,-83
0.30648,56,-148,8306,25,-52,5
0.30662,-5,-111,8294,12,-84,-13
0.306759,15,-122,8281,69,-58,-20
0.306898,25,-139,8282,31,-65,-1
0.307038,9,-161,8330,56,-52,-39
0.307177,79,-140,8293,38,-97,5
0.307316,36,-131,8333,56,-65,-32
0.307456,10,-148,8360,44,-58,-26
0.307595,49,-136,8370,-6,-52,5
0.307734,16,-132,8285,100,-84,-45
0.307873,16,-104,8299,50,-97,-26
0.308013,43,-142,8324,-13,-52,-1
0.308152,29,-119,8291,75,-71,-45
0.308291,-8,-102,8290,6,-71,-45
0.308431,23,-74,8261,63,-122,24
0.30857,-9,-82,8297,56,-26,-39
0.308709,12,-201,8311,19,-90,-26
0.308849,68,-107,8308,38,-71,-13
0.308988,36,-111,8326,69,-52,-32
0.309127,-7,-170,8374,50,-90,-32
0.309266,53,-165,8345,44,-33,-1
0.309406,47,-132,8301,25,-109,-51
0.309545,58,-132,8302,31,-39,5
0.309684,11,-74,8301,50,-103,-20
0.309824,10,-117,8268,50,-71,-13
0.309963,16,-148,8273,44,-52,-45
0.310102,30,-160,8307,6,-103,-20
0.310242,8,-159,8312,69,-39,18
0.310381,22,-130,8308,56,-77,-83
0.31052,55,-98,8303,56,-77,24
0.310659,-9,-119,8274,6,-71,-39
0.310799,31,-138,8303,50,-26,24
0.310938,12,-124,8286,25,-103,-32
0.311077,13,-93,8334,100,-103,-45
0.311217,5,-116,8332,12,-46,-7
0.311356,27,-128,8300,12,-58,-13
0.311496,10,-126,8283,56,-52,-13
0.311636,21,-133,8345,82,-103,-51
0.311774,60,-139,8342,25,-46,5
0.311914,3,-55,8252,69,-84,-39
0.312053,-11,-123,8309,12,-77,-13
0.312193,32,-104,8288,56,-26,-13
0.312331,4,-108,8269,50,-122,-39
0.31247,26,-141,8341,19,-26,5
0.312612,33,-143,8332,19,-97,-45
0.312749,45,-146,8306,63,-26,-7
0.312896,12,-150,8283,44,-128,-45
0.313028,0,-97,8299,25,-20,-1
0.313167,15,-77,8236,50,-71,-13
0.313306,26,-149,8247,56,-97,-51
0.313446,19,-106,8300,12,-39,31
0.313585,51,-128,8274,100,-116,-58
0.313724,61,-118,8313,12,-46,-32
0.313864,36,-147,8306,44,-84,-7
0.314003,9,-162,8296,44,-46,-32
0.314142,8,-98,8312,63,-109,-13
0.314282,37,-132,8321,19,-26,-7
0.314421,63,-153,8282,69,-90,-7
0.31456,-45,-112,8292,0,-52,-45
0.3147,21,-109,8323,75,-103,-20
0.314839,-28,-110,8318,0,-33,-26
0.314978,-7,-111,8338,82,-103,-20
0.315118,64,-106,8308,56,-52,-20
0.315257,14,-146,8320,44,-65,-32
0.315396,11,-118,8300,38,-84,-32
0.315535,57,-121,8237,25,-52,-1
0.315675,-10,-125,8296,56,-77,-20
0.315814,13,-182,8255,19,-97,-39
0.315953,-16,-121,8337,75,-52,-7
0.316092,-2,-134,8356,31,-58,-20
0.316232,-16,-133,8311,69,-77,-20
0.316371,-21,-123,8325,12,-77,5
0.316511,43,-83,8276,69,-58,-45
0.31665,-9,-202,8320,38,-52,-39
0.316789,20,-161,8333,69,-97,-1
0.316929,33,-132,8345,6,-58,-20
0.317068,16,-124,8294,56,-90,-58
0.317207,16,-77,8302,0,-33,56
0.317346,-76,-156,8301,75,-109,-102
0.317486,31,-104,8326,19,-39,50
0.317625,6,-107,8315,56,-77,-51
0.317764,13,-88,8348,63,-97,-45
0.317904,45,-141,8290,25,-26,31
0.318043,38,-127,8278,44,-84,-39
0.318182,19,-93,8276,69,-71,-77
0.318322,20,-136,8311,31,-84,37
0.318461,46,-172,8345,44,-26,-32
0.3186,25,-121,8326,56,-116,-7
0.31874,-19,-130,8327,31,-33,-39
0.318879,22,-135,8311,31,-84,-1
0.319018,31,-173,8303,100,-97,-26
0.319157,-44,-130,8279,12,-46,-51
0.319297,-33,-124,8319,31,-122,5
0.319438,31,-133,8294,56,-33,-39
0.319575,5,-197,8307,44,-58,12
0.319715,-11,-167,8314,25,-77,-51
0.319854,-3,-128,8326,56,-39,12
0.319994,40,-110,8304,50,-128,-64
0.320132,50,-143,8266,75,-39,24
0.320272,43,-156,8321,-6,-58,-39
0.320411,59,-93,8285,107,-135,-32
0.32055,37,-96,8264,0,-14,-32
0.32069,40,-75,8288,63,-103,-13
0.320829,21,-132,8325,12,-71,-26
0.320968,75,-94,8274,63,-71,12
0.321109,1,-134,8300,12,-46,-32
0.321247,37,-150,8326,63,-97,-32
0.321386,19,-105,8327,44,-71,-20
0.321526,32,-131,8287,25,-46,-1
0.321665,45,-103,8336,75,-116,-64
0.321806,46,-143,8333,25,-52,-7
0.321943,50,-100,8295,75,-65,-26
0.322084,29,-103,8276,44,-77,-39
0.322222,69,-132,8266,25,-65,-20
0.322366,19,-89,8332,44,-84,-20
0.322501,10,-88,8258,19,-71,-26
0.32264,53,-100,8257,56,-46,-1
0.32278,27,-103,8330,50,-84,-51
0.322919,50,-97,8268,38,-52,24
0.323058,19,-146,8252,31,-97,-51
0.323197,78,-121,8288,63,-39,-7
0.323337,55,-137,8282,0,-77,-13
0.323476,38,-130,8239,50,-58,-13
0.323615,7,-108,8348,56,-71,-58
0.323755,22,-122,8322,25,-84,-7
0.323894,16,-155,8325,75,-58,-20
0.324033,26,-132,8276,44,-103,-20
0.324173,-1,-126,8306,19,-26,-32
0.324312,22,-107,8273,88,-84,-13
0.324451,75,-138,8309,-32,-52,-45
0.324591,22,-106,8279,113,-103,-1
0.32473,23,-86,8298,-13,-39,-26
0.324869,20,-133,8281,75,-84,-32
0.325009,12,-136,8319,44,-65,-26
0.325148,36,-132,8295,25,-90,-26
0.325287,49,-116,8307,31,-46,-39
0.325426,8,-163,8286,44,-71,-7
0.325566,-25,-113,8296,38,-58,-1
0.325705,12,-106,8319,82,-84,-26
0.325844,10,-117,8341,-6,-65,-13
0.325984,62,-110,8271,56,-77,-20
0.326123,-6,-120,8321,63,-77,-26
0.326262,101,-138,8326,31,-77,-20
0.326404,10,-144,8359,63,-71,-13
0.326541,-15,-169,8267,38,-52,-20
0.32668,93,-98,8305,63,-71,5
0.326819,41,-112,8337,6,-52,-58
0.326959,-23,-158,8325,94,-122,-26
0.327098,-31,-123,8254,25,-14,31
0.327237,-5,-152,8322,31,-77,-51
0.327378,-13,-123,8378,69,-77,-13
0.327516,28,-140,8346,38,-65,-20
0.327655,46,-123,8320,75,-52,-13
0.327795,34,-149,8311,6,-103,-26
0.327934,36,-158,8312,63,-77,-13
0.328073,43,-138,8260,44,-90,-77
0.328213,29,-135,8320,-6,-52,24
0.328352,6,-168,8324,63,-65,-51
0.328491,31,-131,8309,56,-84,5
0.32863,-3,-145,8314,0,-39,5
0.32877,29,-159,8344,75,-97,-51
0.328909,86,-155,8360,31,-65,-7
0.329049,44,-149,8289,31,-77,-70
0.329188,28,-135,8324,56,-77,-7
0.329327,-44,-146,8334,44,-71,-13
0.329468,16,-98,8304,6,-65,-1
0.329607,70,-136,8307,94,-77,-58
0.329745,19,-173,8267,25,-52,-20
0.329884,10,-167,8271,38,-58,12
0.330023,-8,-142,8299,63,-97,-58
0.330164,19,-100,8343,31,-77,5
0.330302,55,-144,8326,63,-65,-70
0.330441,69,-169,8302,38,-52,31
0.33058,90,-156,8330,19,-90,-51
0.33072,26,-116,8309,113,-65,-51
0.330859,-10,-85,8317,-50,-46,56
0.330998,-24,-135,8323,138,-97,-58
0.331138,35,-150,8246,-6,-58,-13
0.331279,10,-160,8266,44,-65,-20
0.331418,-9,-119,8285,82,-84,-51
0.331557,25,-157,8278,12,-65,24
0.331696,34,-153,8302,63,-58,-26
0.331836,46,-106,8299,6,-84,-20
0.331974,14,-94,8290,50,-77,-20
0.332119,8,-130,8323,56,-65,-7
0.332252,-2,-172,8273,25,-58,-26
0.332392,16,-140,8326,69,-90,-45
0.332531,42,-132,8350,38,-39,12
0.33267,52,-122,8326,44,-84,-13
0.33281,-10,-132,8335,19,-58,-45
0.332949,24,-65,8338,56,-77,-1
0.333088,15,-120,8316,12,-90,-20
0.333227,50,-121,8276,82,-58,-39
0.333367,29,-109,8264,0,-58,-39
0.333506,-33,-83,8320,82,-103,-7
0.333645,-28,-153,8307,31,-7,-13
0.333785,18,-152,8251,25,-84,-32
0.333924,42,-85,8282,56,-103,-39
0.334063,-15,-111,8351,31,-52,-7
0.334203,98,-103,8316,69,-84,-26
0.334342,49,-121,8331,-6,-52,-1
0.334481,41,-101,8337,113,-52,-32
0.334621,40,-94,8334,-38,-71,-1
0.33476,79,-136,8321,75,-65,-26
0.334899,43,-138,8288,50,-52,-45
0.335039,-8,-120,8307,12,-97,-7
0.335178,6,-99,8280,75,-71,-1
0.335317,68,-93,8313,19,-71,-45
0.335456,31,-153,8301,75,-65,-1
0.335596,19,-150,8325,0,-90,-32
0.335735,45,-130,8254,63,-90,-26
0.335874,-18,-140,8283,56,-65,-1
0.336014,32,-154,8246,31,-52,-7
0.336153,22,-155,8329,50,-65,-64
0.336292,63,-118,8352,44,-77,12
0.336432,49,-90,8356,82,-84,-32
0.336571,33,-114,8325,0,-58,-32
0.33671,39,-90,8319,50,-71,-13
0.336853,42,-147,8339,82,-65,-32
0.336989,-3,-112,8336,0,-97,-32
0.337128,39,-100,8264,56,-20,-1
0.337267,37,-119,8293,56,-103,-39
0.337407,12,-61,8342,56,-65,-13
0.337546,35,-128,8324,38,-58,-39
0.337685,41,-114,8269,6,-71,12
0.337825,12,-121,8301,82,-71,-45
0.337964,-12,-107,8306,50,-77,-20
0.338103,18,-130,8286,25,-58,-26
0.338243,13,-109,8308,50,-103,-45
0.338382,-3,-80,8260,50,-52,43
0.338521,-5,-119,8291,50,-71,-51
0.338661,43,-133,8334,12,-58,-32
0.3388,5,-141,8336,75,-97,-1
0.338939,9,-120,8270,25,-84,-32
0.339078,23,-145,8267,56,-52,-13
0.339218,24,-162,8311,38,-46,-39
0.339356,33,-154,8280,69,-116,-45
0.339496,37,-100,8298,12,-46,-1
0.339636,40,-148,8244,56,-84,-7
0.339775,51,-162,8320,31,-33,-20
0.339914,5,-152,8289,38,-128,-70
0.340054,-18,-120,8283,50,-46,18
0.340193,66,-104,8363,19,-71,-32
0.340332,4,-175,8327,94,-103,-26
0.340472,17,-80,8340,-25,-7,-13
0.340611,30,-96,8340,69,-109,-32
0.34075,-14,-122,8318,69,-65,-20
0.340889,10,-151,8272,19,-84,-32
0.341029,1,-189,8285,94,-103,-45
0.341168,12,-191,8317,-13,-39,12
0.341307,16,-111,8286,56,-84,-26
0.341447,9,-111,8291,31,-65,5
0.341586,45,-133,8311,50,-90,-70
0.341725,22,-110,8335,56,-52,-7
0.341865,47,-142,8286,19,-39,12
0.342004,28,-120,8306,69,-97,-58
0.342143,62,-96,8321,12,-65,12
0.342283,14,-102,8305,44,-84,-32
0.342422,53,-91,8311,63,-46,-26
0.342561,20,-125,8264,25,-77,-26
0.342701,44,-87,8268,50,-90,5
0.34284,-10,-154,8296,50,-52,-32
0.342979,79,-168,8283,19,-52,-26
0.343118,43,-169,8344,69,-77,-7
0.343258,-11,-106,8372,31,-90,-45
0.343397,8,-71,8294,12,-33,12
0.343536,50,-122,8286,94,-122,-58
0.343676,-3,-162,8354,-6,-58,-20
0.343815,37,-154,8324,63,-46,24
0.343954,69,-82,8311,69,-109,-58
0.344094,4,-108,8273,38,-46,-1
0.344233,33,-108,8272,44,-97,-7
0.344372,41,-99,8325,69,-46,-39
0.344512,-27,-101,8312,6,-71,-13
0.344651,40,-173,8345,19,-90,-26
0.34479,35,-144,8299,82,-65,-20
0.344929,13,-111,8277,38,-58,-32
0.345069,-12,-118,8290,12,-77,-1
0.345208,-7,-101,8288,50,-65,-32
0.345347,4,-155,8294,25,-71,-1
0.345487,37,-159,8295,63,-90,-32
0.345626,20,-161,8214,50,-77,-7
0.345765,-28,-131,8333,12,-77,-51
0.345905,0,-155,8293,69,-58,-1
0.346044,7,-152,8287,56,-103,-7
0.346183,84,-134,8294,31,-58,-45
0.346322,90,-82,8311,63,-84,-7
0.346462,69,-83,8259,19,-33,-1
0.346601,64,-146,8337,69,-77,-51
0.34674,-15,-149,8323,0,-90,-1
0.34688,41,-99,8330,63,-52,-26
0.347019,49,-189,8308,44,-71,-51
0.347158,27,-165,8314,38,-103,-20
0.347298,46,-192,8350,12,-33,37
0.347437,62,-103,8312,82,-77,-83
0.347576,18,-142,8320,12,-58,-1
0.347716,36,-167,8353,56,-97,-20
0.347855,35,-176,8330,44,-52,-20
0.347994,-45,-112,8295,38,-77,-7
0.348134,-3,-178,8323,38,-58,-45
0.348273,53,-182,8273,75,-84,-13
0.348412,24,-124,8239,-19,-77,-13
0.348551,-12,-174,8317,94,-90,-26
0.348691,24,-174,8286,25,-65,-32
0.34883,38,-128,8361,44,-84,-13
0.348969,51,-88,8322,19,-20,-7
0.349109,-14,-115,8264,56,-90,-39
0.349248,11,-109,8282,31,-84,-26
0.349387,74,-121,8327,63,-65,-7
0.349527,42,-125,8327,63,-84,-26
0.349666,40,-77,8291,6,-52,-1
0.349805,62,-129,8242,44,-84,-13
0.349945,102,-134,8317,69,-71,-45
0.350084,25,-141,8304,50,-46,12
0.350223,29,-109,8300,19,-90,-26
0.350364,43,-174,8302,88,-71,-26
0.350502,11,-172,8317,19,-77,-32
0.350641,46,-138,8307,50,-65,-7
0.35078,20,-113,8302,31,-84,-58
0.35092,27,-139,8295,19,-65,37
0.351059,-3,-119,8321,56,-52,-39
0.351198,-40,-135,8263,75,-90,-20
0.351338,45,-164,8294,12,-39,-7
0.351477,2,-108,8314,63,-122,-26
0.351616,5,-77,8313,44,-33,-58
0.351756,7,-177,8287,44,-128,12
0.351895,28,-111,8264,82,-26,-45
0.352034,4,-135,8289,12,-103,12
0.352175,32,-60,8331,50,-58,-58
0.352313,9,-130,8309,19,-46,37
0.352452,-27,-204,8302,56,-90,-64
0.352592,37,-129,8354,63,-58,-26
0.352731,38,-106,8291,12,-90,-20
0.35287,68,-107,8300,44,-14,-1
0.353009,24,-115,8321,88,-135,-45
0.353149,-4,-111,8308,50,-39,-26
0.353288,78,-103,8249,12,-77,-20
0.353427,32,-112,8290,50,-71,5
0.353567,-4,-139,8331,56,-71,-51
0.353706,1,-110,8270,56,-84,-20
0.353845,38,-130,8291,31,-46,-20
0.353985,31,-171,8287,56,-58,-20
0.354124,12,-107,8330,6,-77,-13
0.354263,8,-98,8286,69,-84,-58
0.354402,54,-172,8337,38,-77,-1
0.354542,-10,-119,8341,25,-26,-13
0.354681,-20,-114,8339,50,-90,-20
0.354821,83,-118,8308,69,-90,-39
0.35496,47,-114,8321,50,-58,-26
0.355099,22,-156,8302,0,-77,5
0.355238,26,-122,8304,88,-97,-39
0.355378,25,-146,8314,12,-46,-20
0.355517,3,-176,8335,75,-97,-26
0.355656,-2,-156,8327,31,-26,5
0.355796,48,-152,8302,44,-84,-32
0.355935,25,-100,8346,50,-71,-1
0.356074,-38,-135,8341,44,-90,-64
0.356213,-20,-125,8293,38,-52,31
0.356353,17,-150,8311,38,-77,-64
0.356492,-28,-155,8314,38,-58,24
0.356631,37,-158,8294,50,-65,-77
0.356771,28,-141,8285,56,-77,24
0.35691,2,-123,8270,-6,-52,-32
0.357049,41,-125,8263,63,-71,-26
0.357189,10,-131,8283,0,-77,-1
0.357328,17,-93,8324,75,-90,-20
0.357467,23,-148,8298,25,-71,-20
0.357607,25,-123,8303,25,-20,12
0.357746,7,-124,8322,88,-141,-77
0.357886,11,-136,8280,12,-7,-7
0.358025,34,-159,8357,56,-84,24
0.358164,29,-172,8293,6,-84,-70
0.358305,10,-136,8298,94,-77,-45
0.358442,15,-130,8316,6,-46,18
0.358582,31,-106,8268,38,-58,-45
0.358723,15,-72,8246,-19,-77,-13
0.35886,24,-89,8249,119,-58,-26
0.359,63,-140,8286,19,-77,-20
0.35914,15,-166,8311,-19,-52,-13
0.359278,16,-115,8322,88,-97,-32
0.359418,1,-165,8330,31,-39,-32
0.359557,13,-125,8312,56,-58,-39
0.359696,27,-136,8356,12,-65,5
0.359838,31,-178,8342,69,-65,-20
0.359975,48,-134,8320,12,-58,-45
0.360114,10,-124,8273,50,-77,-32
0.360254,48,-100,8308,38,-58,-1
0.360393,23,-98,8290,12,-77,-1
0.360533,-7,-132,8270,50,-97,-51
0.360671,47,-110,8295,56,-39,5
0.360811,43,-90,8292,50,-90,-45
0.36095,-1,-128,8328,38,-71,-1
0.361089,58,-108,8336,50,-77,-32
0.361229,42,-116,8299,56,-65,-7
0.361372,45,-107,8300,12,-52,-7
0.361508,-6,-151,8321,82,-103,-51
0.361646,59,-122,8285,19,-46,-1
0.361786,29,-129,8297,38,-71,-32
0.361927,-1,-115,8287,63,-65,-20
0.362064,-13,-83,8295,-6,-39,-39
0.362204,10,-81,8296,82,-90,-13
0.362344,12,-88,8342,6,-71,5
0.362482,66,-186,8287,69,-52,-39
0.362622,28,-122,8361,31,-90,-1
0.362761,9,-97,8314,56,-71,-45
0.362901,33,-135,8321,31,-77,-26
0.36304,65,-177,8285,19,-46,24
0.363179,15,-149,8248,82,-103,-64
0.363318,-13,-146,8285,12,-33,5
0.363457,0,-195,8283,50,-109,-32
0.363597,80,-155,8322,44,-58,-13
0.363736,44,-156,8319,56,-77,-39
0.363875,-14,-122,8288,31,-58,18
0.364015,19,-104,8312,44,-77,-58
0.364154,68,-71,8339,44,-65,-13
0.364294,26,-93,8322,56,-52,-13
0.364433,64,-132,8369,38,-109,-26
0.364572,10,-147,8250,38,-39,-13
0.364711,-25,-89,8311,19,-71,18
0.36485,0,-160,8293,100,-97,-102
0.36499,39,-170,8352,38,-46,37
0.365129,48,-136,8333,38,-65,-20
0.365268,69,-115,8340,44,-90,-26
0.365408,87,-84,8266,50,-52,-51
0.365547,-30,-199,8347,31,-103,5
0.365687,8,-184,8291,38,-33,-26
0.365826,85,-120,8262,50,-90,-26
0.365965,35,-88,8284,31,-26,18
0.366104,26,-112,8316,69,-122,-64
0.366245,78,-85,8305,31,-58,5
0.366384,6,-108,8328,38,-77,-39
0.366522,-18,-138,8246,38,-71,-20
0.366663,46,-149,8279,50,-71,24
0.366801,53,-139,8279,44,-71,-70
0.36694,55,-110,8301,50,-84,-7
0.36708,-2,-155,8308,25,-20,-7
0.367219,15,-144,8282,19,-90,-39
0.367359,33,-133,8272,69,-109,-26
0.367499,15,-160,8300,38,-39,-32
0.367637,44,-182,8336,38,-90,-7
0.367776,33,-156,8349,31,-39,-20
0.367916,57,-125,8296,75,-97,-39
0.368055,22,-120,8276,-25,-33,-1
0.368194,9,-95,8269,94,-97,-26
0.368334,36,-139,8266,0,-20,-20
0.368473,18,-156,8292,75,-71,-39
0.368612,21,-141,8258,12,-77,-7
0.368752,-5,-167,8268,56,-65,-7
0.368891,-17,-169,8301,12,-84,-20
0.369033,17,-122,8326,56,-46,-45
0.369175,31,-118,8298,75,-90,-13
0.369311,38,-128,8290,-19,-52,-1
0.369448,81,-125,8277,50,-77,-13
0.369587,20,-156,8305,25,-65,-32
0.369727,-12,-95,8234,88,-77,-45
0.369867,14,-164,8310,12,-52,-1
0.370005,50,-113,8284,-32,-77,-20
0.370146,-3,-141,8330,75,-65,-13
0.370284,19,-82,8324,63,-122,-32
0.370423,47,-104,8272,38,-46,-26
0.370564,89,-130,8337,6,-65,5
0.370704,54,-135,8271,44,-52,-7
0.370842,2,-112,8317,56,-97,-64
0.37098,-14,-156,8336,19,-58,12
0.371121,14,-101,8309,82,-90,-39
0.371259,40,-148,8267,19,-58,-20
0.371398,33,-160,8249,0,-39,-13
0.371537,58,-142,8280,69,-97,-20
0.371677,-18,-191,8244,31,-103,-39
0.371816,-22,-143,8288,56,-52,5
0.371955,-2,-106,8310,44,-52,-26
0.372095,62,-146,8288,31,-84,-45
0.372234,80,-122,8273,63,-77,12
0.372373,28,-185,8308,44,-71,-45
0.372514,23,-136,8313,31,-33,-20
0.372653,27,-110,8264,56,-109,-1
0.372792,22,-140,8323,69,-58,-39
0.372931,-10,-142,8272,6,-77,-26
0.37307,28,-153,8269,38,-84,-1
0.373209,62,-115,8267,25,-77,-26
0.37335,44,-124,8310,25,-33,-13
0.373488,-18,-143,8314,63,-109,-45
0.373627,18,-134,8292,19,-26,18
0.373766,-42,-109,8284,82,-116,-26
0.373906,-22,-95,8348,12,-39,-77
0.374045,51,-69,8290,63,-97,12
0.374185,24,-82,8319,19,-58,-1
0.374324,35,-95,8286,50,-77,-45
0.374463,44,-166,8270,63,-71,-20
0.374602,65,-132,8319,19,-58,-13
0.374742,65,-101,8334,44,-58,-20
0.374881,27,-107,8346,75,-109,-58
0.37502,27,-106,8329,-6,-77,5
0.37516,3,-120,8305,88,-26,-20
0.375299,59,-77,8285,6,-90,-26
0.375438,52,-93,8296,63,-90,-39
0.375578,35,-93,8296,38,-52,-20
0.375717,51,-165,8301,63,-65,-20
0.375856,-14,-162,8296,25,-65,-1
0.375995,34,-137,8300,50,-97,-45
0.376135,32,-150,8304,50,-71,5
0.376274,39,-104,8307,19,-77,-7
0.376413,9,-118,8310,56,-46,-45
0.376553,25,-121,8321,44,-109,-39
0.376692,76,-166,8293,31,-14,43
0.376831,73,-176,8296,63,-97,-89
0.37697,72,-166,8321,-6,-46,43
0.37711,-13,-137,8292,107,-84,-58
0.377249,-3,-154,8322,0,-58,-7
0.377388,53,-132,8352,63,-77,-7
0.377528,25,-156,8287,56,-97,-32
0.377667,-6,-145,8362,6,-71,-26
0.377807,69,-169,8297,75,-58,-26
0.377946,51,-128,8289,31,-58,-1
0.378085,2,-105,8318,19,-58,-58
0.378225,39,-118,8309,50,-71,12
0.378364,53,-119,8347,56,-77,-58
0.378503,-5,-168,8344,31,-52,37
0.378642,33,-153,8291,25,-103,-77
0.378782,33,-142,8261,63,-71,-1
0.378921,36,-129,8257,50,-84,-64
0.37906,40,-134,8297,0,-65,18
0.3792,-6,-116,8305,82,-65,-39
0.379339,36,-85,8275,6,-65,-13
0.379478,20,-78,8337,56,-65,-20
0.379618,47,-111,8290,63,-84,-51
0.379757,38,-117,8325,50,-58,24
0.379896,10,-105,8347,0,-65,-39
0.380035,43,-128,8300,69,-97,-39
0.380175,-28,-130,8330,94,-77,-26
0.380314,-15,-153,8328,6,-26,-1
0.380454,-16,-196,8328,38,-109,-13
0.380592,-27,-155,8318,63,-65,-45
0.380732,48,-117,8276,38,-52,-1
0.380871,40,-118,8270,88,-77,-39
0.38101,-8,-146,8308,12,-103,-13
0.38115,9,-170,8389,31,-33,-32
0.381289,21,-132,8320,82,-84,-1
0.381428,-10,-135,8299,12,-84,-20
0.381568,0,-147,8350,44,-46,-32
0.381707,75,-126,8365,38,-52,12
0.381846,34,-134,8354,69,-116,-64
0.381986,43,-154,8321,12,-65,-20
0.382126,66,-156,8307,44,-58,18
0.382264,38,-121,8339,50,-52,-39
0.382404,36,-160,8302,63,-97,-45
0.382543,13,-119,8307,50,-46,12
0.382685,53,-115,8327,19,-77,-32
0.382822,40,-121,8347,88,-97,-39
0.382961,31,-129,8295,25,-26,-20
0.3831,26,-193,8320,25,-71,-1
0.38324,11,-172,8309,56,-65,-39
0.383381,35,-75,8318,50,-65,-1
0.383518,46,-112,8281,31,-71,-26
0.383657,25,-108,8282,19,-52,-13
0.383798,12,-124,8351,75,-109,-20
0.383936,36,-145,8284,56,-90,-51
0.384075,5,-199,8332,19,-20,-13
0.384214,14,-126,8337,31,-71,-1
0.384354,-50,-97,8352,25,-84,-7
0.384493,51,-139,8260,44,-58,-45
0.384632,23,-161,8253,50,-84,-26
0.384772,36,-108,8311,31,-39,-1
0.384911,22,-115,8317,56,-103,-58
0.385051,-18,-132,8296,12,-52,31
0.38519,17,-96,8285,50,-84,-64
0.385329,-11,-173,8318,38,-65,-1
0.385468,11,-165,8287,75,-71,-20
0.385608,54,-123,8301,12,-58,-45
0.385747,58,-124,8294,50,-84,-7
0.385887,54,-129,8290,25,-46,-13
0.386026,31,-157,8351,50,-109,-58
0.386165,13,-160,8287,63,-52,37
0.386304,12,-168,8304,31,-84,-58
0.386444,16,-157,8324,50,-84,-39
0.386583,45,-122,8358,19,-39,-1
0.386722,16,-96,8249,69,-77,-13
0.386862,91,-110,8265,12,-90,-45
0.387,11,-135,8320,94,-52,-32
0.38714,53,-171,8308,-25,-77,5
0.38728,36,-96,8332,69,-46,-45
0.387419,51,-95,8293,69,-122,-32
0.387558,-10,-120,8371,25,-46,12
0.387697,-19,-132,8287,25,-84,-32
0.387837,22,-161,8296,44,-58,-32
0.387976,-22,-107,8356,69,-90,-7
0.388115,21,-125,8302,38,-33,-26
0.388255,77,-65,8274,25,-109,-32
0.388394,12,-74,8339,75,-52,-32
0.388533,16,-122,8295,44,-90,-32
0.388673,73,-162,8308,-6,-52,5
0.388812,4,-162,8319,88,-71,-1
0.388951,51,-134,8348,25,-58,-51
0.389091,116,-120,8252,63,-84,-1
0.38923,68,-110,8289,25,-71,-51
0.389371,22,-123,8304,25,-33,12
0.389509,49,-124,8248,44,-97,-39
0.389648,69,-141,8247,75,-65,-26
0.389788,13,-140,8305,-25,-46,5
0.389926,81,-114,8352,63,-52,-20
0.390066,74,-146,8273,31,-97,-45
0.390205,-5,-177,8261,69,-52,-39
0.390344,22,-84,8335,19,-90,12
0.390485,55,-121,8333,31,-33,-39
0.390624,15,-140,8283,31,-97,5
0.390762,33,-128,8282,75,-58,-64
0.390901,39,-115,8249,19,-52,12
0.391041,68,-198,8296,56,-97,-70
0.391181,-13,-99,8344,44,-65,12
0.391319,5,-114,8291,0,-58,-13
0.391459,44,-156,8289,69,-58,-45
0.391599,61,-161,8277,25,-77,12
0.391741,47,-100,8281,50,-58,-26
0.391876,31,-123,8285,38,-90,-39
0.392017,-9,-134,8290,75,-39,-13
0.392155,35,-142,8302,19,-52,-7
0.392294,50,-167,8328,56,-109,-32
0.392434,-8,-125,8318,75,-97,-45
0.392573,5,-116,8316,-13,-26,31
0.392712,8,-172,8321,100,-109,-96
0.392852,113,-96,8271,25,-26,-1
0.392991,35,-94,8302,63,-58,18
0.393131,10,-162,8305,6,-97,-77
0.39327,10,-96,8314,94,-52,5
0.393409,4,-165,8309,44,-77,-7
0.393548,22,-157,8308,6,-65,-39
0.393688,38,-157,8294,63,-71,-7
0.393828,20,-152,8302,19,-71,-32
0.393966,71,-124,8322,31,-58,-32
0.394106,5,-75,8295,50,-65,-7
0.394245,9,-101,8263,12,-84,-13
0.394386,37,-117,8336,75,-90,-45
0.394524,35,-78,8301,44,-77,12
0.394664,5,-114,8234,19,-33,-64
0.394802,-1,-148,8262,6,-90,12
0.394942,12,-99,8319,94,-71,-32
0.395081,-12,-133,8285,6,-84,-7
0.39522,52,-155,8354,63,-71,-58
0.395359,57,-110,8271,38,-58,31
0.395499,25,-156,8301,19,-77,-39
0.395638,9,-108,8345,63,-84,-32
0.395777,26,-106,8319,56,-58,-20
0.395917,-17,-168,8354,44,-65,-32
0.396056,26,-120,8297,50,-58,12
0.396195,27,-117,8270,56,-84,-32
0.396335,-6,-183,8330,50,-90,-20
0.396475,1,-83,8330,19,-20,-13
0.396613,7,-139,8307,69,-116,-39
0.396753,-1,-122,8275,38,-58,-13
0.396892,10,-157,8285,19,-52,-26
0.397031,-20,-222,8322,82,-58,-26
0.397171,6,-115,8319,56,-84,-26
0.39731,52,-177,8269,31,-77,-51
0.397448,72,-141,8332,12,-52,12
0.397588,-14,-125,8299,75,-97,-32
0.397728,46,-151,8274,19,-33,-45
0.397867,-4,-149,8314,63,-90,18
0.398006,-1,-84,8276,44,-58,-64
0.398146,66,-111,8257,31,-77,5
0.398285,50,-99,8267,44,-65,-45
0.398424,65,-129,8315,50,-84,5
0.398564,45,-112,8288,38,-84,-26
0.398703,18,-88,8295,50,-58,-45
0.398842,23,-129,8291,44,-90,5
0.398982,45,-143,8323,50,-33,-1
0.399121,37,-116,8236,56,-90,-58
0.39926,-2,-140,8290,25,-90,-13
0.399399,-7,-132,8340,44,-46,-1
0.399539,8,-99,8324,44,-46,-13
0.399678,40,-95,8363,63,-128,-58
0.399817,47,-148,8340,50,-46,5
0.399957,13,-118,8343,25,-71,-13
0.400096,-13,-156,8322,63,-103,-32
0.400235,11,-151,8326,50,-46,-13
0.400375,41,-138,8332,25,-84,-1
0.400514,61,-111,8302,50,-52,-32
0.400653,111,-103,8331,69,-97,-51
0.400792,76,-150,8316,19,-58,5
0.400932,47,-115,8306,31,-65,18
0.401071,1,-134,8311,63,-65,-64
0.40121,6,-180,8298,63,-109,-26
0.40135,11,-116,8266,44,-39,5
0.401489,11,-152,8305,-6,-71,-20
0.401628,13,-143,8275,63,-84,-58
0.401767,13,-144,8328,38,-58,12
0.401907,-7,-153,8359,19,-58,-13
0.402047,5,-103,8323,82,-65,-58
0.402191,53,-91,8323,0,-46,-20
0.402325,49,-139,8314,63,-58,-13
0.402465,18,-179,8361,56,-97,-13
0.402603,28,-169,8358,6,-33,-26
0.402743,43,-109,8312,25,-77,-13
0.402882,61,-105,8271,88,-116,-26
0.403021,34,-177,8320,12,-46,-26
0.403162,59,-133,8290,63,-77,-20
0.4033,11,-138,8263,44,-65,-26
0.403439,50,-130,8290,12,-65,-7
0.403579,28,-174,8250,56,-84,-45
0.403718,49,-135,8287,12,-46,-20
0.403858,49,-118,8278,75,-109,-1
0.403996,67,-165,8275,50,-39,-58
0.404136,-10,-138,8299,12,-71,18
0.404275,11,-149,8321,50,-52,-20
0.404415,61,-75,8247,44,-71,-58
0.404554,51,-120,8325,50,-52,5
0.404693,78,-142,8291,6,-58,-13
0.404832,61,-114,8301,75,-103,-39
0.404972,-20,-127,8273,44,-65,-1
0.405112,37,-140,8319,19,-20,-26
0.40525,42,-158,8298,38,-97,-51
0.40539,42,-114,8330,38,-26,24
0.405529,18,-126,8284,31,-103,-39
0.405668,-15,-134,8283,69,-71,-13
0.405809,15,-63,8268,25,-39,-20
0.405947,68,-126,8301,12,-71,5
0.406086,81,-130,8266,69,-84,-32
0.406226,59,-141,8296,31,-52,-13
0.406366,1,-148,8320,50,-77,-45
0.406504,65,-198,8321,6,-52,5
0.406643,10,-128,8310,75,-103,-32
0.406783,31,-175,8293,6,-46,-32
0.406926,53,-122,8318,44,-116,-1
0.407061,11,-130,8313,63,-14,12
0.407201,-28,-113,8344,31,-90,-51
0.40734,12,-108,8295,69,-97,-13
0.407479,-5,-103,8244,0,-39,-13
0.407619,3,-135,8305,82,-97,-7
0.407758,46,-160,8266,-6,-71,-26
0.407897,-1,-82,8222,75,-52,-32
0.408037,-21,-113,8206,-6,-58,18
0.408176,-32,-106,8288,88,-116,-64
0.408315,35,-116,8292,50,-52,-26
0.408454,56,-125,8281,31,-65,18
0.408594,-11,-133,8290,25,-65,-32
0.408733,52,-130,8271,38,-71,-32
0.408872,20,-154,8280,25,-71,-20
0.409012,1,-133,8361,88,-84,-39
0.409151,28,-118,8320,44,-90,-20
0.40929,48,-126,8304,38,-33,12
0.40943,44,-153,8311,56,-97,-32
0.409569,-2,-126,8312,19,-65,-39
0.409708,-9,-145,8305,82,-77,-1
0.409848,12,-172,8307,44,-71,-45
0.409987,72,-126,8331,19,-71,18
0.410126,50,-139,8250,56,-71,-58
0.410265,36,-166,8278,19,-52,5
0.410405,72,-135,8317,56,-90,-39
0.410545,5,-88,8315,50,-58,-20
0.410685,8,-140,8322,6,-52,-1
0.410823,-30,-105,8294,94,-77,-45
0.410963,30,-111,8297,0,-58,-13
0.411101,89,-113,8318,50,-65,-39
0.411241,43,-115,8320,56,-116,-1
0.41138,30,-104,8323,19,-46,-45
0.411519,29,-105,8281,63,-97,-20
0.411663,-1,-134,8258,44,-33,-7
0.411798,-2,-93,8332,63,-116,-32
0.411937,19,-75,8303,38,-46,-13
0.412076,59,-129,8319,44,-84,-20
0.412216,24,-143,8281,25,-58,-20
0.412356,60,-98,8312,69,-84,-26
0.412494,99,-156,8305,25,-52,5
0.412635,53,-120,8294,88,-84,-51
0.412773,39,-185,8284,25,-77,-20
0.412912,39,-147,8301,50,-65,-1
0.413052,15,-154,8310,31,-90,-39
0.413192,31,-151,8351,50,-71,5
0.41333,53,-135,8332,38,-90,-51
0.413469,11,-126,8339,69,-26,5
0.413609,20,-110,8276,31,-65,-26
0.413748,47,-58,8291,50,-84,-26
0.413889,-1,-164,8278,44,-71,-13
0.414027,52,-127,8313,25,-52,-20
0.414166,1,-130,8301,75,-116,-32
0.414306,17,-173,8317,19,-46,-45
0.414446,-19,-124,8277,75,-58,31
0.414584,64,-168,8334,25,-65,-51
0.414724,49,-142,8273,38,-71,-1
0.414863,42,-98,8311,38,-103,-32
0.415002,61,-108,8358,63,-39,-32
0.415141,14,-165,8341,25,-84,12
0.415281,-17,-114,8284,50,-77,-39
0.415421,49,-142,8318,19,-77,-7
0.415559,68,-183,8340,75,-71,-13
0.415699,62,-78,8332,0,-71,-26
0.415838,74,-73,8293,50,-65,-45
0.415977,50,-135,8273,38,-71,5
0.416116,1,-138,8345,38,-71,-32
0.416256,23,-118,8303,75,-71,-26
0.416394,14,-141,8268,12,-77,5
0.416534,-11,-182,8308,50,-77,-32
0.416674,43,-159,8305,50,-65,-39
0.416813,58,-150,8301,38,-84,-7
0.416952,-2,-131,8277,50,-77,-20
0.417092,30,-129,8358,31,-52,5
0.417231,34,-149,8299,88,-90,-64
0.41737,62,-105,8286,6,-65,-7
0.41751,62,-75,8285,44,-77,5
0.417649,21,-73,8359,38,-58,-20
0.417788,7,-149,8306,44,-116,-77
0.417928,0,-161,8305,56,-26,-7
0.418067,0,-133,8288,44,-90,18
0.418206,-11,-112,8299,44,-46,-58
0.418346,32,-79,8336,44,-84,5
0.418485,83,-130,8262,44,-65,-39
0.418624,55,-175,8292,31,-71,-13
0.418764,20,-205,8312,38,-39,-26
0.418902,6,-137,8328,69,-128,-26
0.419042,-3,-149,8324,50,-65,-32
0.419181,-27,-106,8320,-25,-33,-1
0.419321,49,-119,8340,132,-116,-1
0.41946,56,-133,8334,-25,-52,-70
0.419599,50,-155,8295,63,-52,31
0.419739,60,-164,8331,56,-103,-64
0.419878,69,-125,8320,44,-65,-13
0.420017,58,-114,8329,-13,-46,-1
0.420157,6,-99,8332,107,-90,-7
0.420296,25,-120,8316,6,-77,-45
0.420436,42,-124,8310,63,-65,12
0.420576,7,-133,8308,38,-65,-13
0.420715,11,-158,8341,63,-103,-70
0.420853,16,-154,8310,31,-39,31
0.420992,34,-176,8279,50,-90,-45
0.421135,24,-97,8305,31,-84,-26
0.421271,31,-126,8255,31,-46,18
0.42141,60,-116,8298,44,-84,-20
0.421549,71,-137,8314,31,-52,-51
0.421689,21,-138,8288,50,-97,-7
0.421828,70,-82,8291,50,-46,-20
0.421967,23,-109,8321,50,-84,-39
0.422106,15,-122,8337,31,-65,-1
0.422246,37,-95,8347,44,-65,-13
0.422386,56,-132,8342,56,-71,-20
0.422526,-11,-141,8297,19,-65,-39
0.422664,18,-165,8253,88,-103,-7
0.422804,37,-140,8280,38,-26,-32
0.422944,28,-126,8269,38,-103,-39
0.423082,45,-133,8305,44,-52,18
0.423222,52,-140,8291,25,-90,-39
0.423366,1,-115,8282,-13,-39,12
0.4235,57,-110,8327,119,-122,-58
0.423639,-15,-126,8355,19,-33,-13
0.423779,20,-100,8307,6,-84,5
0.423918,58,-50,8286,69,-77,-39
0.424057,28,-140,8296,6,-65,-1
0.424196,-3,-144,8338,100,-77,-51
0.424336,39,-167,8319,6,-46,18
0.424475,19,-122,8291,25,-65,-39
0.424614,-13,-109,8325,88,-77,-13
0.424754,48,-121,8267,31,-90,-32
0.424894,23,-104,8314,25,-26,-7
0.425032,48,-153,8360,75,-122,-45
0.425172,7,-66,8309,25,-1,12
0.425311,26,-157,8299,69,-109,-20
0.42545,62,-163,8250,31,-71,-51
0.42559,42,-137,8240,44,-52,18
0.425729,-15,-118,8292,31,-84,-32
0.425871,13,-94,8326,63,-65,-1
0.426007,-43,-114,8318,31,-90,-39
0.426147,52,-63,8309,50,-65,-13
0.426286,60,-125,8296,44,-58,-7
0.426425,32,-134,8250,6,-84,-7
0.426565,20,-131,8294,63,-65,-51
0.426704,7,-108,8308,100,-65,-32
0.426843,43,-100,8304,25,-39,5
0.426982,42,-110,8293,56,-97,-32
0.427122,4,-129,8278,31,-84,-39
0.427261,39,-131,8286,31,-39,-20
0.427401,-2,-109,8280,50,-84,-7
0.42754,36,-163,8259,50,-52,-45
0.427679,-19,-144,8297,38,-71,-7
0.427819,22,-132,8280,82,-65,-26
0.427957,46,-161,8333,25,-77,-20
0.428097,36,-167,8310,38,-58,-20
0.428236,56,-167,8303,56,-116,-39
0.428375,48,-162,8324,6,-52,5
0.428515,46,-161,8290,94,-103,-45
0.428654,51,-140,8318,19,-39,-26
0.428793,8,-149,8299,31,-65,24
0.428933,25,-118,8316,56,-90,-89
0.429072,-19,-126,8283,38,-84,12
0.429212,-45,-154,8301,50,-58,-32
0.429351,-16,-124,8292,38,-77,-20
0.42949,76,-129,8277,50,-77,-32
0.429629,-11,-130,8282,38,-39,24
0.429769,18,-138,8332,31,-109,-51
0.429908,16,-185,8326,56,-46,-13
0.430047,46,-144,8218,31,-84,-13
0.430187,29,-84,8272,50,-71,-20
0.430326,-8,-127,8367,31,-71,-26
0.430465,33,-169,8291,75,-90,-20
0.430605,10,-140,8321,38,-65,-7
0.430745,-18,-119,8340,12,-58,-20
0.430883,-32,-98,8295,56,-103,-26
0.431022,36,-103,8256,50,-46,-20
0.431162,-7,-155,8313,69,-97,-39
0.431301,20,-144,8308,44,-58,-7
0.43144,46,-141,8361,12,-77,12
0.431579,28,-138,8277,94,-65,-77
0.431719,19,-179,8321,12,-84,12
0.431858,-3,-158,8287,63,-71,-58
0.431997,6,-148,8295,38,-46,5
0.432137,52,-167,8335,44,-122,-26
0.432277,2,-143,8336,44,-33,-13
0.432417,-26,-156,8254,25,-90,-20
0.432555,36,-146,8316,56,-71,-1
0.432695,22,-166,8311,44,-77,-39
0.432834,17,-147,8293,44,-77,-26
0.432973,30,-158,8285,44,-52,18
0.433112,37,-149,8304,56,-84,-45
0.433251,40,-124,8347,50,-65,-7
0.433392,60,-100,8292,25,-20,5
0.43353,17,-103,8311,56,-128,-64
0.433669,-3,-157,8314,12,-33,24
0.433809,56,-123,8269,56,-71,-58
0.433948,-49,-76,8317,44,-77,-20
0.434087,48,-111,8335,44,-77,-7
0.434227,-11,-112,8288,50,-58,-39
0.434368,10,-107,8267,56,-77,-45
0.434505,14,-130,8292,0,-58,24
0.434644,65,-135,8327,69,-84,-64
0.434784,-3,-114,8319,6,-52,12
0.434923,27,-161,8262,56,-84,-39
0.435062,64,-135,8297,63,-77,-26
0.435202,16,-131,8322,31,-65,-1
0.435341,25,-118,8238,38,-65,-39
0.43548,58,-147,8318,44,-77,-7
0.43562,74,-141,8333,50,-97,5
0.435759,75,-118,8256,0,-14,-51
0.435898,-5,-143,8297,94,-122,-39
0.436038,4,-84,8303,12,-46,24
0.436177,18,-107,8265,38,-77,-58
0.436316,-14,-169,8321,38,-58,-1
0.436455,53,-182,8304,44,-84,-45
0.436595,54,-165,8282,63,-71,12
0.436734,-2,-133,8298,44,-71,-45
0.436873,-21,-152,8333,25,-65,5
0.437013,11,-157,8274,56,-97,-51
0.437152,12,-156,8314,44,-33,-13
0.437291,49,-147,8313,88,-97,-32
0.437431,-32,-104,8316,12,-58,-20
0.43757,16,-128,8352,63,-33,-13
0.437709,-9,-201,8320,25,-77,-13
0.437849,59,-173,8300,69,-77,-51
0.437988,25,-140,8278,31,-77,24
0.438127,28,-152,8335,38,-52,-89
0.438266,50,-133,8339,38,-65,24
0.438406,11,-160,8312,38,-90,-26
0.438545,3,-122,8328,56,-71,-20
0.438684,15,-94,8250,56,-58,-51
0.438824,16,-136,8272,6,-58,43
0.438963,39,-135,8301,69,-65,-64
0.439102,-16,-104,8359,38,-103,-13
0.439242,-8,-106,8297,25,-46,-1
0.439381,6,-201,8325,88,-77,-26
0.43952,-1,-130,8315,38,-58,-13
0.43966,37,-155,8306,25,-77,-20
0.439799,49,-91,8352,63,-90,-32
0.439938,-29,-125,8351,-6,-20,-26
0.44008,34,-92,8312,119,-84,31
0.440217,24,-121,8392,6,-71,-58
0.440356,22,-94,8313,94,-65,-26
0.440495,55,-146,8386,-13,-77,24
0.440635,34,-132,8347,44,-71,-51
0.440774,42,-132,8273,38,-65,-13
0.440913,42,-98,8280,50,-71,-39
0.441053,87,-96,8288,63,-97,-20
0.441192,21,-86,8284,69,-14,-39
0.441331,7,-142,8296,0,-103,31
0.441471,31,-163,8264,75,-52,-77
0.44161,41,-183,8283,6,-116,-1
0.441749,67,-161,8254,50,-52,-13
0.441889,0,-154,8315,31,-39,-26
0.442028,10,-151,8315,63,-71,-20
0.442167,26,-157,8340,38,-109,-7
0.442306,-16,-129,8330,38,-52,-32
0.442446,16,-175,8274,63,-77,-32
0.442585,-15,-163,8299,31,-84,-13
0.442724,-1,-139,8280,44,-58,-1
0.442864,9,-122,8250,56,-58,-58
0.443003,67,-167,8323,25,-90,31
0.443142,2,-138,8311,56,-46,-45
0.443282,12,-102,8290,63,-77,-70
0.443421,106,-140,8311,19,-58,37
0.44356,70,-116,8319,50,-71,-32
0.4437,44,-122,8297,50,-109,-70
0.443839,2,-89,8283,50,-26,18
0.443978,-26,-112,8299,19,-71,-7
0.444117,-9,-190,8266,69,-90,-26
0.444257,3,-179,8289,56,-77,-39
0.444396,37,-165,8252,44,-97,-1
0.444535,32,-100,8273,31,-58,-51
0.444675,-34,-108,8237,44,-52,12
0.444814,-31,-121,8320,50,-109,-64
0.444953,26,-62,8257,19,-58,31
0.445093,-1,-120,8287,56,-46,-45
0.445232,36,-131,8306,38,-77,-13
0.445371,30,-155,8293,50,-77,-20
0.445511,24,-132,8321,50,-71,-20
0.44565,48,-139,8295,69,-122,-39
0.445789,40,-115,8299,31,-33,-26
0.445928,33,-105,8320,25,-84,-13
0.446068,44,-159,8328,31,-58,-39
0.446207,52,-135,8262,31,-84,31
0.446346,-9,-133,8297,63,-71,-39
0.446486,-41,-154,8339,56,-84,-39
0.446625,22,-143,8297,12,-65,5
0.446764,57,-135,8278,50,-46,-13
0.446904,44,-133,8248,44,-90,-45
0.447043,26,-98,8271,50,-71,-39
0.447182,51,-72,8327,19,-84,37
0.447322,-24,-108,8326,88,-52,-64
0.447461,37,-122,8263,19,-58,5
0.4476,44,-113,8231,56,-65,-64
0.447739,70,-139,8308,63,-84,-1
0.447879,-1,-157,8274,6,-26,5
0.448018,29,-129,8296,50,-135,-51
0.448157,47,-170,8311,44,-46,24
0.448297,-2,-113,8309,75,-77,-70
0.448436,-1,-81,8293,12,-65,-1
0.448576,24,-157,8339,56,-97,-51
0.448715,28,-183,8323,25,-39,12
0.448854,4,-170,8309,94,-97,-51
0.448993,33,-139,8314,-19,-33,-1
0.449133,45,-163,8315,75,-103,-39
0.449272,56,-93,8302,50,-65,31
0.449411,-9,-161,8335,50,-65,-77
0.449551,13,-143,8309,38,-90,-1
0.44969,28,-155,8334,50,-46,-1
0.449829,39,-142,8356,12,-65,-39
0.449968,78,-127,8311,75,-97,-7
0.450108,27,-97,8285,25,-77,5
0.450247,29,-128,8286,25,-33,-51
0.450386,27,-179,8328,56,-109,-39
0.450526,16,-168,8336,63,-52,12
0.450665,24,-144,8305,25,-103,-64
0.450804,45,-126,8334,12,-39,37
0.450944,79,-130,8275,82,-90,-58
0.451083,67,-128,8332,25,-52,-32
0.451222,28,-144,8299,25,-97,12
0.451364,44,-139,8293,63,-33,-39
0.451501,54,-95,8296,56,-103,-26
0.45164,31,-121,8280,31,-65,-45
0.451779,0,-130,8227,69,-84,5
0.451919,1,-149,8291,25,-65,-51
0.452058,16,-127,8357,19,-39,12
0.452197,21,-104,8338,100,-71,-32
0.452337,37,-86,8345,-19,-84,-51
0.452476,51,-144,8364,94,-84,-20
0.452615,35,-132,8302,0,-84,-20
0.452755,8,-109,8334,69,-65,-26
0.452894,7,-76,8262,38,-58,-1
0.453033,26,-183,8274,12,-71,-39
0.453173,-6,-146,8294,75,-103,-1
0.453312,19,-85,8295,31,-39,-51
0.453451,6,-102,8313,44,-84,-7
0.45359,54,-130,8300,56,-52,12
0.45373,23,-125,8292,50,-84,-77
0.453869,0,-132,8295,38,-77,-7
0.454008,1,-112,8318,56,-46,-20
0.454148,-18,-117,8344,6,-97,-26
0.454287,23,-156,8352,50,-65,-26
0.454426,31,-126,8278,19,-52,-13
0.454566,67,-111,8276,88,-103,-39
0.454705,26,-137,8304,25,-71,-39
0.454845,1,-193,8306,19,-46,24
0.454984,14,-196,8295,56,-97,-51
0.455123,3,-90,8304,69,-58,-32
0.455262,53,-105,8305,0,-71,-13
0.455401,19,-178,8330,38,-33,5
0.455541,8,-151,8299,63,-116,-51
0.45568,33,-143,8263,12,-33,5
0.455819,46,-146,8277,50,-103,-39
0.455959,-37,-139,8364,63,-71,-13
0.456098,5,-113,8339,-6,-77,-39
0.456237,-31,-136,8315,94,-109,-45
0.456377,-6,-137,8324,0,-20,18
0.456516,27,-150,8298,50,-90,-51
0.456655,2,-134,8258,44,-52,5
0.456795,27,-159,8276,25,-58,-20
0.456934,18,-137,8316,82,-97,-20
0.457073,8,-193,8379,12,-46,-51
0.457213,52,-175,8326,75,-65,12
0.457352,23,-118,8261,25,-128,-64
0.457491,12,-145,8310,38,-7,37
0.45763,13,-145,8268,19,-77,-58
0.45777,55,-94,8260,94,-77,-26
0.457909,12,-74,8305,-6,-46,12
0.458048,-22,-125,8345,107,-90,-39
0.458188,-11,-126,8306,-13,-71,-20
0.458327,3,-150,8287,88,-65,-32
0.458466,60,-118,8293,12,-58,-7
0.458606,7,-118,8244,31,-58,-32
0.458745,23,-154,8340,82,-97,-7
0.458884,4,-128,8317,25,-65,-13
0.459024,22,-118,8309,44,-52,-20
0.459163,-16,-167,8302,44,-103,-51
0.459302,46,-119,8302,31,-39,5
0.459441,18,-125,8277,44,-103,-7
0.459581,9,-104,8318,44,-39,-26
0.45972,-36,-152,8358,50,-90,-32
0.459859,22,-170,8326,63,-46,-26
0.459999,-31,-147,8285,38,-97,5
0.460138,22,-184,8273,25,-65,-51
0.460277,53,-100,8291,31,-58,12
0.460417,4,-111,8318,82,-109,-58
0.460556,36,-167,8357,38,-65,5
0.460695,14,-198,8333,25,-77,-39
0.460835,56,-170,8303,31,-52,-20
0.460974,27,-176,8278,56,-65,-7
0.461113,52,-100,8275,31,-109,-26
0.461252,-9,-132,8328,31,-39,-13
0.461392,92,-152,8355,82,-122,-58
0.461531,81,-151,8305,19,-39,24
0.46167,20,-161,8316,19,-58,-51
0.461811,6,-139,8375,38,-116,5
0.461949,42,-121,8333,63,-52,-51
0.462089,26,-138,8313,63,-77,-13
0.462229,48,-132,8318,0,-46,-26
0.462367,-3,-148,8328,82,-109,-58
0.462506,68,-177,8344,12,-46,31
0.462645,52,-108,8297,19,-90,-39
0.462785,20,-103,8324,69,-65,-58
0.462924,61,-119,8329,0,-46,31
0.463063,63,-92,8271,75,-97,-51
0.463204,63,-65,8308,31,-77,-51
0.463342,23,-99,8322,19,-39,5
0.463481,-21,-118,8293,44,-97,-32
0.463621,61,-90,8295,63,-46,-1
0.46376,30,-108,8296,31,-65,-39
0.4639,32,-150,8269,69,-90,-20
0.464039,-9,-157,8324,69,-71,-1
0.464178,20,-145,8321,-6,-65,-58
0.464318,42,-142,8306,69,-90,-7
0.464457,59,-136,8264,50,-46,-20
0.464597,45,-183,8279,50,-77,-7
0.464735,-4,-155,8232,44,-71,-58
0.464875,-3,-147,8309,12,-46,5
0.465014,25,-134,8305,69,-135,-32
0.465154,32,-171,8312,44,-33,-20
0.465293,8,-176,8285,19,-77,-20
0.465432,11,-136,8300,82,-97,-39
0.465571,23,-130,8252,25,-58,5
0.46571,-14,-163,8274,82,-65,-83
0.46585,2,-187,8338,31,-77,43
0.465989,16,-114,8288,44,-84,-39
0.466128,36,-110,8231,12,-14,-45
0.466269,-13,-105,8334,63,-154,-26
0.466407,13,-145,8288,50,-20,24
0.466549,2,-96,8314,44,-58,-70
0.466687,37,-103,8331,25,-77,12
0.466825,66,-156,8289,25,-52,-13
0.466964,55,-119,8318,69,-84,-39
0.467103,-4,-166,8323,38,-46,24
0.467246,2,-143,8344,63,-77,-64
0.467382,43,-149,8338,12,-58,-7
0.467523,38,-113,8301,69,-116,-32
0.467661,48,-164,8224,19,-1,-7
0.4678,19,-133,8268,44,-90,-58
0.467939,-6,-111,8315,31,-58,31
0.468078,49,-132,8211,82,-65,-58
0.468218,-6,-126,8263,0,-52,31
0.468359,62,-73,8308,44,-122,-45
0.468496,64,-112,8312,50,-52,-13
0.468636,21,-206,8287,50,-90,-32
0.468775,46,-114,8343,31,-77,-32
0.468914,42,-73,8302,75,-52,-1
0.469054,36,-89,8271,12,-65,-39
0.469193,11,-119,8305,50,-90,5
0.469332,16,-171,8374,63,-52,-58
0.469472,-23,-169,8288,38,-97,-13
0.469611,27,-112,8308,69,-65,-20
0.46975,-34,-166,8349,38,-71,-26
0.469889,4,-149,8293,19,-58,24
0.470029,11,-171,8295,94,-90,-70
0.470168,8,-181,8324,-32,-52,31
0.470308,26,-111,8257,82,-84,-58
0.470447,23,-123,8289,44,-109,-7
0.470586,75,-154,8355,0,-39,-45
0.470726,70,-170,8317,94,-122,-1
0.470866,29,-140,8296,-6,-58,-13
0.471005,58,-127,8278,69,-77,-45
0.471144,11,-99,8317,19,-71,-20
0.471284,2,-174,8291,75,-39,5
0.471422,26,-168,8332,-6,-77,-20
0.471561,47,-132,8322,82,-84,-51
0.471701,39,-123,8310,12,-58,5
0.47184,8,-111,8346,50,-84,-13
0.471979,3,-103,8280,38,-39,-45
0.472119,36,-100,8281,19,-116,-20
0.472259,-9,-122,8283,56,-26,-7
0.472397,10,-137,8306,44,-90,-32
0.472537,18,-119,8266,50,-52,-1
0.472677,-63,-163,8335,31,-97,-39
0.472815,14,-124,8331,31,-39,-39
0.472956,42,-84,8320,31,-71,-7
0.473094,2,-166,8354,56,-65,-26
0.473233,21,-202,8345,50,-65,-32
0.473372,12,-196,8322,69,-84,-32
0.473513,10,-207,8276,56,-46,43
0.473651,9,-120,8347,-32,-71,-70
0.47379,47,-88,8339,88,-109,-13
0.47393,-16,-108,8367,31,-26,-13
0.47407,15,-166,8324,44,-58,-39
0.47421,7,-129,8318,25,-77,-20
0.474348,32,-149,8295,56,-84,-39
0.474487,-12,-141,8295,50,-26,-1
0.474626,11,-136,8299,31,-84,-13
0.474766,41,-72,8281,50,-103,-70
0.474905,2,-166,8310,31,-14,24
0.475044,23,-149,8289,38,-84,-32
0.475183,21,-174,8326,75,-71,-26
0.475323,34,-121,8330,-13,-77,-32
0.475462,27,-86,8290,100,-97,-20
0.475601,-5,-149,8327,12,-52,-13
0.475741,13,-98,8334,50,-65,-13
0.475881,45,-107,8309,63,-65,-26
0.476019,78,-130,8297,44,-97,-26
0.476159,78,-133,8231,44,-52,-45
0.476299,30,-142,8296,0,-46,56
0.476438,2,-153,8299,88,-77,-108
0.476576,36,-91,8283,-6,-65,12
0.476718,23,-142,8330,69,-84,-7
0.476855,4,-131,8326,19,-65,-45
0.476994,12,-129,8246,69,-77,-1
0.477135,20,-145,8335,25,-97,-32
0.477273,23,-209,8277,31,-39,-20
0.477412,64,-148,8291,50,-77,-45
0.477553,34,-140,8340,25,-52,18
0.477695,1,-204,8338,82,-77,-58
0.477833,25,-108,8311,31,-77,-7
0.477969,22,-130,8337,38,-39,-13
0.478109,18,-122,8319,31,-77,-20
0.47825,48,-96,8321,44,-71,-20
0.478388,37,-132,8319,69,-65,-26
0.478527,32,-126,8294,38,-71,-26
0.478666,29,-153,8295,19,-33,-26
0.478805,38,-133,8289,69,-116,-20
0.478945,26,-120,8324,44,-71,-13
0.479084,17,-92,8305,31,-39,5
0.479223,17,-107,8370,69,-116,-32
0.479363,0,-164,8328,38,-26,-39
0.479502,-16,-181,8340,50,-84,-26
0.479641,26,-87,8276,63,-97,-26
0.47978,-1,-93,8301,31,-52,-1
0.47992,35,-101,8318,19,-71,-20
0.48006,48,-102,8351,75,-39,-13
0.480198,83,-124,8295,19,-122,-39
0.480338,23,-117,8279,38,-33,-20
0.480478,-24,-116,8294,82,-65,-26
0.480616,30,-171,8297,0,-77,-13
0.480757,76,-140,8320,69,-52,-26
0.480896,14,-67,8324,0,-84,-13
0.481034,40,-108,8320,88,-58,-39
0.481174,25,-128,8326,-6,-58,-1
0.481313,-19,-160,8312,82,-103,-20
0.481452,27,-130,8288,19,-46,-32
0.481592,9,-118,8331,50,-97,-20
0.481732,-19,-120,8295,25,-33,-13
0.481872,20,-89,8296,31,-52,-1
0.48201,-34,-142,8220,50,-90,-13
0.482149,47,-109,8279,44,-77,-58
0.482289,18,-130,8305,19,-58,24
0.482428,1,-180,8338,63,-52,-51
0.482567,52,-128,8290,25,-58,5
0.482706,36,-75,8321,50,-84,-45
0.482846,36,-154,8256,44,-84,-20
0.482985,16,-145,8287,19,-33,12
0.483124,1,-122,8317,44,-116,-39
0.483264,30,-137,8294,63,-58,-26
0.483403,33,-165,8310,38,-65,-39
0.483542,15,-127,8334,19,-97,12
0.483681,-6,-182,8267,50,-14,-26
0.483821,22,-154,8290,69,-109,-7
0.48396,47,-148,8322,31,-90,-45
0.484099,37,-124,8297,44,-52,-7
0.484239,19,-145,8330,19,-65,-20
0.484378,-13,-82,8330,69,-77,-32
0.484517,34,-104,8339,6,-39,-1
0.484657,9,-137,8309,75,-109,-45
0.484796,11,-164,8261,19,-46,-26
0.484935,-12,-154,8315,75,-90,-45
0.485074,7,-143,8351,19,-71,24
0.485214,22,-129,8335,44,-58,-39
0.485353,-17,-111,8256,38,-84,-20
0.485492,72,-153,8292,75,-65,-51
0.485632,-19,-113,8343,38,-77,43
0.485771,10,-142,8309,44,-77,-77
0.48591,64,-118,8290,25,-52,24
0.486049,80,-109,8301,94,-128,-45
0.486189,-9,-139,8318,19,-33,-13
0.486328,-15,-89,8308,31,-84,-7
0.486467,72,-100,8314,44,-65,-39
0.486607,37,-127,8331,50,-77,-1
0.486746,30,-119,8376,6,-65,-45
0.486886,-18,-123,8288,94,-71,5
0.487025,-1,-179,8284,0,-52,-39
0.487164,16,-86,8306,94,-122,-20
0.487303,61,-112,8278,6,-46,-13
0.487443,50,-157,8277,63,-97,-39
0.487583,51,-166,8294,31,-46,-7
0.487721,10,-137,8341,50,-103,-45
0.487861,0,-111,8284,50,-39,5
0.488002,58,-83,8282,19,-46,-13
0.488139,33,-109,8266,75,-103,-89
0.488278,24,-112,8352,38,-71,56
0.488418,9,-142,8338,44,-58,-58
0.488557,21,-171,8298,12,-77,-26
0.488696,6,-172,8298,69,-52,-20
0.488835,58,-177,8246,6,-65,-1
0.488975,57,-170,8309,82,-90,-32
0.489115,54,-106,8302,31,-84,5
0.489253,23,-115,8361,56,-65,-51
0.489393,36,-107,8360,31,-46,-7
0.489534,46,-118,8304,25,-90,18
0.489671,0,-155,8324,82,-103,-64
0.489814,8,-154,8323,-6,-46,12
0.489952,-21,-68,8293,107,-65,-45
0.490089,20,-141,8298,0,-52,-26
0.490229,-13,-114,8318,19,-65,-7
0.490369,-12,-171,8308,69,-71,-20
0.490509,24,-178,8261,69,-77,-58
0.490647,20,-186,8315,-19,-58,18
0.490787,9,-167,8300,82,-77,-51
0.490925,33,-81,8277,63,-71,24
0.491065,-7,-146,8303,12,-52,-58
0.491204,6,-173,8328,31,-77,-13
0.491343,42,-114,8267,50,-58,-20
0.491483,9,-106,8260,88,-116,-26
0.491622,72,-158,8302,6,-46,5
0.491761,36,-172,8349,38,-71,-45
0.491901,40,-158,8342,88,-58,-7
0.492041,7,-103,8346,-6,-71,-51
0.492179,-9,-137,8261,50,-71,43
0.492319,26,-137,8258,50,-58,-83
0.492458,-11,-145,8274,50,-84,18
0.492597,83,-104,8320,-6,-26,-26
0.492738,26,-111,8277,63,-97,-39
0.492876,58,-119,8308,19,-58,-1
0.493015,-5,-186,8272,19,-46,-7
0.493155,41,-119,8241,69,-84,-58
0.493294,65,-142,8339,31,-71,-1
0.493433,2,-123,8322,31,-71,-26
0.493572,37,-121,8285,63,-65,-20
0.493712,15,-155,8300,25,-65,-32
0.493851,-15,-96,8315,25,-90,18
0.49399,4,-112,8253,113,-52,-51
0.494129,16,-149,8283,-25,-84,-32
0.494269,-11,-145,8282,75,-20,24
0.494408,-5,-96,8264,44,-116,-64
0.494547,8,-141,8340,38,-33,-1
0.494687,48,-110,8271,50,-116,-45
0.494826,-8,-96,8361,19,-46,-20
0.494966,22,-130,8343,31,-26,-7
0.495105,6,-167,8288,63,-135,-20
0.495244,-4,-147,8298,25,-39,-39
0.495383,-8,-125,8276,38,-90,-26
0.495523,17,-162,8296,75,-65,-39
0.495662,21,-151,8333,25,-65,37
0.495801,-8,-147,8346,44,-39,-64
0.49594,11,-144,8379,44,-109,12
0.49608,39,-89,8322,69,-52,-45
0.496219,41,-130,8297,19,-97,-32
0.496359,12,-129,8306,56,-71,-7
0.496498,48,-109,8301,6,-52,18
0.496637,13,-124,8295,56,-90,-58
0.496776,37,-146,8303,44,-71,-26
0.496916,40,-163,8322,19,-46,18
0.497055,17,-88,8284,82,-103,-51
0.497194,-5,-149,8291,25,-33,-1
0.497333,4,-83,8290,38,-97,-45
0.497474,36,-117,8307,56,-71,12
0.497612,38,-142,8370,44,-84,-83
0.497753,51,-124,8379,38,-46,18
0.497892,35,-135,8329,25,-71,-32
0.49803,18,-129,8334,38,-90,-7
0.498169,62,-82,8319,69,-65,-32
0.498309,43,-123,8310,12,-71,5
0.498448,67,-129,8259,56,-65,-26
0.498587,42,-119,8298,56,-97,-32
0.498726,15,-142,8341,12,-26,5
0.498866,-7,-156,8359,88,-97,-77
0.499005,-14,-163,8333,12,-65,5
0.499145,16,-130,8319,56,-90,-20
0.499284,54,-145,8271,38,-52,-13
0.499423,60,-118,8281,50,-65,-20
0.499563,35,-112,8286,69,-84,-1
0.499702,35,-136,8299,6,-46,-32
0.499841,32,-121,8297,75,-116,-45
0.49998,47,-152,8229,19,-71,12
0.500121,15,-177,8336,44,-26,-45
0.500259,-12,-117,8320,31,-90,-20
0.500398,36,-88,8335,44,-84,-20
0.500538,5,-129,8346,38,-52,5
0.500677,-44,-129,8323,63,-33,-70
0.500818,7,-172,8302,38,-90,5
0.500956,-33,-191,8293,-13,-65,-26
0.501096,34,-86,8289,107,-52,-58
0.501234,53,-97,8279,31,-97,31
0.501373,58,-90,8322,25,-26,-26
0.501513,22,-143,8295,38,-97,-58
0.501652,40,-120,8270,38,-58,43
0.501791,43,-142,8237,63,-77,-89
0.501931,6,-175,8272,19,-71,12
0.50207,53,-96,8335,50,-46,-39
0.50221,60,-100,8337,63,-97,-26
0.50235,49,-122,8284,6,-39,31
0.502488,36,-115,8288,94,-97,-51
0.502627,38,-154,8330,25,-46,-20
0.502767,15,-154,8360,50,-103,-26
0.502908,61,-157,8286,63,-65,5
0.503045,76,-141,8267,6,-39,-64
0.503185,46,-129,8310,31,-71,12
0.503325,30,-141,8321,69,-90,-45
0.503463,-28,-179,8286,-13,-58,-13
0.503603,2,-109,8274,88,-52,-13
0.503742,58,-122,8261,12,-52,-1
0.503881,25,-91,8288,75,-77,-39
0.504021,59,-146,8295,50,-97,-32
0.50416,-20,-105,8274,31,-65,-1
0.504299,6,-115,8246,63,-33,-58
0.504438,12,-103,8280,-6,-97,18
0.504578,12,-129,8337,126,-65,-39
0.504717,23,-122,8344,-6,-65,5
0.504856,14,-99,8287,82,-71,-58
0.504996,39,-166,8284,50,-71,12
0.505135,0,-139,8289,31,-65,-13
0.505274,46,-91,8310,6,-84,-45
0.505415,21,-176,8262,88,-84,-13
0.505553,52,-132,8216,-32,-39,24
0.505692,19,-89,8264,100,-90,-64
0.505831,52,-123,8311,31,-84,-1
0.505971,90,-132,8291,38,-39,-20
0.50611,26,-134,8293,44,-103,-64
0.506249,49,-101,8305,31,-65,12
0.506389,19,-131,8337,75,-90,-7
0.506528,6,-100,8309,0,-58,-32
0.506667,14,-68,8303,82,-97,-20
0.506807,6,-150,8329,-25,-46,-26
0.506946,19,-170,8284,107,-84,-26
0.507085,-14,-181,8352,6,-71,5
0.507225,-8,-118,8299,75,-52,-32
0.507364,29,-117,8281,6,-71,-39
0.507505,19,-99,8317,82,-84,-13
0.507643,17,-108,8288,12,-39,-20
0.507783,18,-145,8301,44,-90,-32
0.507922,29,-139,8295,50,-46,-1
0.508062,22,-115,8309,44,-77,-20
0.5082,10,-136,8323,50,-77,-26
0.508339,23,-180,8307,44,-39,-20
0.508478,29,-124,8284,44,-90,-39
0.508617,68,-100,8282,19,-77,-26
0.508757,35,-123,8288,50,-97,-1
0.508896,80,-143,8329,19,-26,-7
0.509035,33,-144,8309,63,-84,-26
0.509175,4,-130,8275,44,-65,-39
0.509315,7,-142,8323,31,-97,-20
0.509454,27,-149,8329,25,-14,-7
0.509593,88,-177,8265,82,-116,-58
0.509732,32,-144,8262,0,-65,37
0.509871,-3,-136,8292,63,-65,-58
0.510011,54,-139,8320,50,-39,5
0.51015,21,-167,8264,44,-58,-7
0.510289,37,-153,8288,19,-109,-58
0.510429,22,-111,8324,56,-46,12
0.510568,13,-55,8268,12,-97,-58
0.510707,38,-86,8252,12,-20,24
0.510847,32,-118,8286,82,-97,-77
0.510986,-7,-119,8301,6,-71,37
0.511125,50,-102,8294,50,-71,-64
0.511265,51,-142,8279,50,-58,5
0.511405,14,-128,8317,25,-52,-39
0.511543,49,-132,8330,25,-90,-1
0.511682,18,-134,8307,56,-84,-32
0.511822,-7,-160,8290,12,-65,-26
0.511961,43,-133,8304,69,-77,-32
0.5121,2,-129,8342,25,-46,5
0.51224,-44,-115,8358,44,-103,-45
0.512379,66,-141,8345,25,-26,-1
0.512518,9,-156,8358,69,-97,-51
0.512658,-12,-100,8319,31,-65,-7
0.512797,-2,-146,8337,12,-65,-13
0.512936,18,-141,8328,100,-109,-45
0.513076,28,-132,8340,25,-14,-7
0.513215,5,-130,8357,50,-77,-7
0.513354,9,-120,8350,-13,-103,-51
0.513495,22,-145,8334,69,-52,50
0.513633,-4,-124,8326,63,-84,-70
0.513772,-13,-110,8300,44,-52,-7
0.513911,75,-130,8361,-6,-58,-1
0.514052,-4,-130,8371,82,-103,-58
0.51419,61,-145,8330,56,-71,12
0.514329,55,-99,8368,12,-14,-7
0.51447,43,-84,8294,75,-135,-77
0.514608,73,-102,8311,38,-26,24
