Average_IMU_SPS_Hz,7077.149
IMU_Time_sec,Accel_X_raw,Accel_Y_raw,Accel_Z_raw,Gyro_X_raw,Gyro_Y_raw,Gyro_Z_raw
0.0,-21,-139,8252,56,-20,18
0.00014,11,-126,8222,31,-103,-20
0.00028,-23,-153,8272,56,-71,-45
0.00042,-23,-106,8293,38,-46,-7
0.000558,1,-130,8312,50,-77,-39
0.000697,65,-145,8266,12,-39,-7
0.000836,22,-104,8276,69,-122,-20
0.000976,29,-122,8275,56,-26,-20
0.001115,11,-139,8305,44,-97,-45
0.001254,43,-98,8252,63,-58,-13
0.001394,-1,-120,8257,-6,-52,24
0.001533,-16,-101,8255,63,-84,-64
0.001672,19,-107,8337,44,-46,-1
0.001812,7,-99,8311,82,-97,-39
0.001951,-20,-99,8311,-6,-46,-1
0.00209,28,-120,8251,56,-122,-45
0.002229,-4,-123,8222,50,-58,-1
0.002369,22,-97,8189,-13,-33,-7
0.002508,9,-114,8275,100,-90,-51
0.002647,11,-134,8282,25,-84,-13
0.002787,-4,-72,8322,44,-52,-13
0.002926,20,-63,8271,63,-71,-26
0.003065,14,-77,8233,25,-84,5
0.003205,25,-70,8270,63,-77,-64
0.003344,60,-114,8264,38,-84,18
0.003483,-12,-147,8270,31,-65,-32
0.003623,-28,-111,8323,25,-77,-45
0.003762,-4,-130,8293,82,-46,5
0.003901,45,-126,8247,63,-109,-51
0.004042,-26,-105,8269,-13,-26,24
0.00418,-4,-105,8269,82,-109,-64
0.004319,21,-161,8272,44,-65,-1
0.004458,20,-127,8278,6,-65,-26
0.004598,37,-92,8270,69,-77,-20
0.004737,12,-122,8256,56,-71,-32
0.004876,35,-138,8303,38,-77,-13
0.005016,47,-120,8276,19,-26,-1
0.005155,-6,-140,8292,63,-97,-39
0.005294,26,-152,8244,44,-116,-58
0.005434,46,-128,8264,12,-20,31
0.005573,26,-137,8276,63,-97,-64
0.005712,29,-110,8267,-25,-58,31
0.005852,43,-88,8293,119,-103,-58
0.005991,7,-107,8273,-32,-39,12
0.00613,11,-133,8310,94,-77,-58
0.006269,37,-116,8330,6,-58,-26
0.006409,10,-111,8261,50,-52,18
0.006548,13,-171,8326,38,-84,-58
0.006687,13,-107,8296,25,-58,5
0.006827,30,-124,8331,69,-109,-39
0.006966,38,-127,8312,44,-52,-1
0.007105,-19,-137,8318,38,-71,-26
0.007245,-45,-128,8314,31,-90,-7
0.007384,-7,-142,8276,38,-39,-13
0.007523,18,-97,8296,63,-109,-39
0.007663,0,-179,8279,6,-20,18
0.007802,56,-119,8307,75,-116,-83
0.007941,53,-118,8373,56,-90,12
0.00808,-1,-95,8363,12,-20,-1
0.00822,32,-122,8320,19,-77,-13
0.008359,23,-188,8298,63,-77,-45
0.008498,15,-127,8287,0,-84,18
0.008638,-10,-137,8332,113,-46,-51
0.008778,38,-184,8339,38,-97,12
0.008916,19,-176,8311,44,-39,-26
0.009056,-2,-172,8356,25,-97,-70
0.009195,-1,-170,8298,50,-58,37
0.009334,15,-156,8294,44,-65,-58
0.009474,14,-126,8346,31,-52,-20
0.009613,24,-153,8340,50,-97,-20
0.009751,14,-138,8340,82,-77,-39
0.009891,-31,-96,8335,0,-71,5
0.010033,-19,-122,8335,38,-52,-7
0.010172,50,-115,8321,44,-90,-32
0.010309,57,-144,8301,31,-58,-20
0.010449,25,-159,8302,82,-77,-26
0.010588,36,-153,8335,19,-65,-32
0.010727,16,-119,8316,44,-97,-26
0.010867,-6,-162,8331,31,-46,31
0.011006,-18,-156,8350,19,-52,-64
0.011145,-19,-125,8328,44,-97,-7
0.011285,8,-93,8226,69,-52,-39
0.011424,52,-167,8309,19,-71,-39
0.011563,26,-156,8352,69,-90,-26
0.011702,1,-185,8358,0,-58,5
0.011842,58,-184,8340,94,-77,-70
0.011981,17,-210,8319,19,-71,18
0.01212,1,-192,8327,44,-58,-39
0.01226,5,-106,8304,50,-90,-7
0.012399,17,-150,8328,38,-65,-20
0.012538,20,-144,8303,50,-58,-26
0.012678,62,-110,8332,82,-84,-51
0.012817,40,-139,8313,-6,-71,24
0.012957,22,-139,8277,75,-77,-51
0.013096,15,-139,8348,19,-77,-7
0.013235,5,-100,8282,88,-71,-32
0.013375,-2,-96,8295,-6,-46,12
0.013514,-9,-155,8307,75,-154,-77
0.013653,12,-151,8288,31,6,5
0.013792,14,-141,8337,56,-103,-20
0.013931,14,-182,8340,19,-65,-13
0.014072,20,-171,8312,50,-26,-39
0.01421,38,-125,8341,25,-116,-39
0.014349,36,-103,8291,44,-58,5
0.014489,14,-141,8294,56,-77,-45
0.014629,-8,-168,8342,88,-90,-26
0.014767,37,-140,8327,0,-26,18
0.014907,52,-98,8294,56,-109,-51
0.015046,54,-86,8344,50,-33,-13
0.015185,-9,-71,8303,19,-71,-20
0.015325,-12,-103,8270,63,-116,-26
0.015464,10,-128,8297,38,-46,-20
0.015603,-13,-99,8324,31,-97,-20
0.015742,29,-95,8331,56,6,-20
0.015882,-6,-127,8308,50,-122,-20
0.016021,-11,-120,8297,25,-20,-7
0.01616,69,-174,8322,25,-65,-32
0.0163,33,-171,8363,50,-103,-26
0.016439,-8,-93,8313,63,-58,-51
0.016578,28,-153,8328,25,-71,31
0.016718,25,-146,8321,69,-90,-26
0.016857,-10,-103,8334,63,-84,-45
0.016996,-20,-125,8268,19,-39,-7
0.017136,46,-168,8296,69,-103,-20
0.017275,33,-141,8342,50,-58,-26
0.017414,-11,-128,8317,44,-97,-26
0.017553,54,-170,8333,38,-58,-13
0.017693,51,-182,8262,44,-71,-51
0.017832,-10,-132,8333,63,-52,24
0.017971,-30,-106,8287,38,-84,-70
0.018111,6,-155,8301,38,-71,-7
0.01825,-29,-185,8313,44,-58,-13
0.018389,-7,-145,8271,88,-84,-51
0.018529,30,-173,8322,0,-33,5
0.018668,-27,-143,8310,75,-71,-32
0.018807,-47,-81,8293,50,-97,-1
0.018947,-36,-150,8311,38,-52,-32
0.019086,-3,-149,8308,56,-71,-20
0.019224,52,-98,8320,38,-77,-45
0.019365,5,-94,8323,69,-84,31
0.019504,28,-144,8272,19,-58,-58
0.019644,-7,-116,8344,50,-77,-32
0.019782,32,-144,8306,56,-84,-20
0.019922,-43,-118,8272,38,-65,5
0.020061,11,-136,8330,25,-84,-32
0.0202,39,-97,8267,75,-46,-13
0.02034,1,-104,8319,44,-71,-26
0.020479,14,-132,8328,19,-109,-32
0.020618,-5,-120,8339,94,-77,-20
0.020757,-5,-145,8308,-13,-39,24
0.020897,30,-166,8330,69,-84,-64
0.021036,54,-53,8256,63,-84,-26
0.021175,-20,-93,8266,25,-58,-7
0.021315,-19,-140,8265,56,-90,-1
0.021454,7,-93,8269,38,-39,-45
0.021593,-12,-114,8250,44,-97,-7
0.021733,-19,-146,8337,56,-103,-20
0.021872,26,-127,8281,19,-39,-45
0.022011,-59,-115,8323,56,-90,-26
0.02215,-9,-120,8325,50,-52,-1
0.022293,16,-85,8259,31,-71,-64
0.022429,-19,-88,8291,63,-71,-7
0.022569,7,-136,8294,6,-90,-1
0.022708,70,-126,8246,88,-65,-45
0.022847,3,-115,8323,25,-71,-1
0.022987,39,-133,8319,31,-58,-39
0.023126,-13,-133,8312,38,-77,18
0.023265,14,-205,8264,75,-84,-51
0.023404,12,-124,8275,38,-33,-13
0.023544,-51,-123,8265,19,-77,-13
0.023683,-21,-57,8267,82,-90,-32
0.023822,-21,-82,8305,12,-46,-7
0.023966,-15,-146,8274,31,-77,12
0.024101,57,-129,8297,82,-97,-64
0.02424,31,-128,8240,31,-46,-1
0.02438,-30,-144,8331,25,-90,-26
0.024519,35,-100,8240,82,-52,-20
0.024658,-12,-182,8296,38,-97,-26
0.024798,-25,-77,8336,19,-26,-39
0.024937,40,-27,8288,75,-77,-1
0.025076,37,-131,8300,25,-90,-20
0.025216,0,-125,8238,44,-52,-13
0.025355,9,-130,8270,19,-58,-51
0.025494,-44,-131,8297,50,-84,5
0.025633,33,-106,8313,56,-52,-45
0.025773,37,-144,8304,38,-71,31
0.025912,34,-119,8300,50,-97,-77
0.026051,3,-122,8284,0,-52,18
0.026191,-37,-146,8278,88,-122,-32
0.02633,-44,-124,8319,19,-58,-1
0.026469,21,-100,8296,25,-52,-32
0.026609,54,-89,8297,69,-77,-26
0.026748,18,-76,8274,56,-71,-7
0.026887,18,-114,8280,38,-90,-26
0.027026,21,-145,8287,6,-58,-26
0.027166,31,-96,8365,25,-77,-20
0.027305,12,-77,8347,82,-46,-32
0.027444,21,-149,8321,69,-97,-20
0.027584,7,-114,8292,-6,-65,5
0.027724,25,-99,8328,75,-71,-58
0.027862,11,-166,8320,25,-84,-26
0.028002,35,-112,8348,19,-52,18
0.028141,-18,-117,8277,56,-84,-45
0.02828,42,-105,8304,38,-71,-45
0.028419,8,-131,8318,50,-77,31
0.028559,-21,-217,8341,19,-84,-64
0.028701,23,-127,8296,63,-26,5
0.028837,45,-131,8356,63,-109,-45
0.028977,18,-157,8336,12,-65,12
0.029116,-36,-161,8286,19,-52,-51
0.029255,-12,-179,8292,100,-97,-20
0.029395,0,-178,8327,-6,-14,-1
0.029534,50,-102,8330,75,-122,-64
0.029673,44,-118,8296,19,-77,12
0.029812,51,-145,8342,44,-65,-13
0.029952,-20,-82,8373,50,-39,-39
0.030091,-12,-114,8318,63,-116,-32
0.030232,44,-122,8312,56,-58,24
0.03037,10,-130,8286,12,-39,-39
0.030509,-26,-110,8294,63,-109,-32
0.030649,24,-122,8301,38,-71,-26
0.030788,-18,-174,8258,31,-33,12
0.030927,-29,-162,8324,75,-97,-32
0.031066,-1,-158,8341,25,-65,-32
0.031205,-21,-138,8281,6,-71,-13
0.031345,-13,-180,8301,75,-77,-20
0.031485,36,-141,8288,56,-71,-20
0.031623,41,-157,8281,38,-77,-39
0.031764,43,-209,8288,12,-71,5
0.031904,56,-157,8312,88,-58,-45
0.032042,25,-127,8274,-31,-71,18
0.032181,27,-112,8306,94,-109,-45
0.032319,-12,-134,8321,25,-20,-26
0.032461,-32,-165,8312,50,-84,-20
0.0326,18,-165,8317,50,-97,-20
0.032738,37,-156,8360,50,-52,-20
0.032877,0,-158,8322,6,-71,-45
0.033017,44,-138,8325,82,-71,18
0.033156,25,-161,8296,6,-65,-51
0.033295,-30,-154,8316,75,-90,-26
0.033437,18,-133,8319,19,-52,-26
0.033574,15,-156,8302,19,-84,-1
0.033713,18,-117,8319,82,-52,-26
0.033852,37,-122,8306,44,-128,-39
0.033992,29,-92,8324,0,-65,-7
0.034131,-10,-103,8309,44,-46,-32
0.03427,-18,-180,8328,44,-58,-20
0.03441,34,-152,8296,75,-97,5
0.034549,-25,-186,8304,44,-58,-45
0.034688,-14,-182,8302,-13,-71,12
0.034828,25,-162,8352,88,-71,-39
0.034967,1,-124,8333,19,-84,-51
0.035106,-6,-112,8328,63,-71,-1
0.035246,-11,-164,8334,38,-77,-13
0.035389,15,-140,8323,50,-71,-20
0.035524,27,-140,8304,12,-39,-45
0.035663,53,-112,8287,69,-116,12
0.035803,30,-106,8290,6,-58,-32
0.035942,8,-136,8316,69,-103,-26
0.036081,57,-140,8264,38,-52,-26
0.036221,42,-139,8293,44,-71,-26
0.03636,64,-111,8278,63,-109,-39
0.036499,6,-130,8348,19,-26,-7
0.036639,1,-112,8327,0,-65,31
0.036778,-10,-124,8335,88,-116,-58
0.036917,74,-64,8327,56,-58,-51
0.037057,18,-83,8326,6,-39,43
0.037196,-39,-124,8323,88,-122,-77
0.037335,1,-145,8300,-25,-26,43
0.037474,19,-166,8322,94,-103,-77
0.037614,-4,-96,8290,6,-77,12
0.037753,34,-144,8316,50,-52,-26
0.037892,0,-149,8299,44,-84,-51
0.038032,-43,-122,8305,63,-71,24
0.038173,9,-105,8313,6,-52,-32
0.03831,66,-125,8302,88,-90,-1
0.03845,13,-136,8349,-6,-71,-26
0.038589,7,-89,8333,63,-65,-45
0.038728,-2,-79,8305,50,-84,-1
0.038868,56,-133,8286,25,-58,-20
0.039007,43,-112,8281,50,-71,-32
0.039146,52,-110,8256,25,-77,-1
0.039286,30,-117,8341,69,-77,-20
0.039425,10,-161,8315,31,-52,-26
0.039564,19,-159,8313,63,-84,-20
0.039703,-23,-75,8295,69,-77,-26
0.039843,52,-160,8282,6,-46,-7
0.039982,49,-109,8268,50,-77,-32
0.040121,37,-104,8284,56,-97,-26
0.040261,11,-152,8308,12,-33,12
0.0404,8,-127,8273,69,-109,-39
0.040539,-12,-131,8293,44,-52,-26
0.040679,40,-148,8245,44,-97,-45
0.040818,-6,-164,8268,19,-65,5
0.040957,-35,-112,8323,50,-52,-20
0.041097,-3,-103,8306,25,-71,12
0.041236,36,-89,8315,75,-77,-58
0.041375,79,-145,8315,0,-71,-1
0.041514,22,-172,8328,69,-84,-64
0.041654,-9,-91,8283,38,-33,18
0.041793,-13,-99,8311,63,-122,-39
0.041932,27,-98,8324,31,-33,-13
0.042072,12,-123,8269,31,-58,-7
0.042211,-30,-126,8300,75,-122,-51
0.04235,-4,-133,8263,31,-71,-7
0.04249,-5,-154,8253,63,-39,-32
0.042629,20,-119,8324,44,-65,18
0.042768,-31,-152,8334,6,-109,-96
0.042907,1,-90,8308,56,-7,69
0.043047,29,-109,8331,50,-128,-77
0.043186,0,-109,8263,25,-46,-1
0.043325,0,-82,8332,50,-71,-39
0.043465,-9,-100,8333,56,-90,-7
0.043604,-55,-110,8279,19,-33,-26
0.043743,-7,-158,8281,113,-109,-39
0.043883,-12,-95,8320,-32,-33,12
0.044022,13,-86,8265,69,-58,-13
0.044161,6,-170,8323,38,-122,-39
0.044301,-2,-138,8283,38,-77,-7
0.04444,-3,-147,8294,44,-52,-13
0.044579,-16,-170,8322,63,-90,-39
0.044719,21,-136,8319,38,-65,-13
0.044858,-15,-133,8325,31,-58,-26
0.044997,37,-119,8325,63,-65,-13
0.045136,-5,-162,8360,50,-77,-13
0.045276,34,-109,8341,44,-77,-26
0.045415,46,-151,8293,0,-52,5
0.045554,-19,-166,8311,88,-90,-77
0.045694,17,-142,8325,6,-52,5
0.045833,19,-137,8330,82,-65,-13
0.045972,-2,-120,8315,25,-77,-51
0.046112,23,-115,8300,63,-77,12
0.046251,19,-100,8298,25,-52,-64
0.04639,42,-119,8291,56,-84,-1
0.04653,37,-169,8318,12,-77,-13
0.046669,25,-105,8318,75,-58,-26
0.046808,45,-76,8338,12,-52,-26
0.046947,13,-138,8328,94,-109,-45
0.047087,-21,-98,8330,0,-20,37
0.047226,1,-139,8328,6,-103,-51
0.047365,-20,-152,8326,82,-58,-26
0.047505,50,-167,8301,38,-103,-13
0.047644,20,-150,8332,44,-39,-7
0.047783,17,-104,8311,56,-84,-32
0.047923,-8,-118,8286,38,-90,-39
0.048062,29,-195,8300,6,-39,-1
0.048201,-18,-175,8278,88,-97,-39
0.048341,29,-156,8265,-32,-39,24
0.04848,10,-155,8304,119,-77,-89
0.048619,21,-140,8318,6,-84,24
0.048758,68,-147,8307,44,-58,-51
0.048898,21,-118,8278,38,-77,-7
0.049037,1,-152,8330,69,-52,-39
0.049176,19,-120,8293,25,-97,-1
0.049316,-31,-158,8259,63,-65,-20
0.049455,-9,-131,8285,38,-46,-32
0.049594,32,-97,8287,82,-103,-20
0.049734,-3,-142,8295,-6,-52,18
0.049873,-32,-151,8362,75,-77,-96
0.050012,14,-188,8310,19,-84,43
0.050152,36,-176,8290,69,-77,-26
0.050291,5,-156,8305,6,-26,-13
0.05043,51,-104,8285,100,-90,-32
0.050569,-4,-142,8303,19,-109,-39
0.050709,-23,-227,8263,19,6,12
0.050848,56,-136,8308,69,-97,-20
0.050987,16,-120,8322,25,-77,-39
0.051127,15,-154,8286,44,-71,-13
0.051268,5,-182,8298,38,-46,-1
0.051405,19,-144,8340,50,-103,-64
0.051545,22,-67,8283,38,-46,-7
0.051686,2,-130,8299,50,-90,-32
0.051824,0,-124,8281,6,-65,5
0.051963,-7,-167,8296,94,-77,-64
0.052102,4,-139,8316,12,-20,18
0.052243,49,-121,8275,69,-103,-32
0.052382,6,-113,8312,19,-58,-32
0.05252,47,-86,8343,56,-65,12
0.052659,-5,-181,8271,63,-58,-51
0.052799,36,-132,8288,12,-90,-45
0.052938,26,-159,8298,50,-39,24
0.053077,36,-103,8293,25,-77,-32
0.053216,48,-134,8289,25,-33,-39
0.05336,-3,-140,8296,63,-103,-13
0.053495,-25,-116,8322,63,-46,-39
0.053636,-16,-95,8307,0,-84,-26
0.053774,-45,-170,8310,88,-71,-7
0.053913,5,-209,8239,0,-7,-13
0.054054,16,-134,8287,44,-109,-20
0.054192,21,-144,8244,44,-52,-32
0.054331,43,-134,8305,50,-52,-20
0.05447,-21,-135,8339,56,-90,-45
0.05461,15,-132,8273,31,-77,12
0.05475,14,-143,8328,50,-52,-26
0.054888,17,-106,8329,38,-65,-51
0.055027,37,-126,8253,44,-77,-1
0.055168,19,-102,8329,31,-58,-7
0.055306,-9,-113,8250,63,-71,-39
0.055445,25,-96,8318,25,-116,-39
0.055585,-7,-110,8246,69,-46,12
0.055724,11,-81,8239,19,-39,-45
0.055863,-36,-92,8331,50,-109,-39
0.056002,-23,-90,8322,63,-33,12
0.056142,6,-139,8306,6,-71,-64
0.056281,-16,-161,8295,88,-84,-13
0.05642,-24,-146,8287,38,-77,5
0.05656,24,-157,8316,44,-84,-58
0.056699,43,-106,8317,44,-77,12
0.056838,15,-97,8305,38,-39,-32
0.056978,-44,-115,8325,69,-90,-32
0.057117,10,-140,8320,-32,-58,18
0.057258,39,-122,8287,113,-84,-45
0.057395,74,-145,8240,6,-65,-39
0.057535,19,-103,8307,56,-97,-1
0.057675,55,-106,8291,25,-52,-20
0.057814,35,-135,8308,12,-65,-32
0.057953,21,-113,8258,75,-77,-7
0.058092,-68,-154,8310,50,-71,-32
0.058233,0,-104,8335,-19,-65,-13
0.058371,55,-48,8336,113,-52,-26
0.058511,-15,-94,8344,25,-128,-32
0.058651,-2,-122,8283,25,-39,-45
0.058789,-14,-74,8288,56,-71,5
0.058929,-33,-111,8254,19,-77,-26
0.059067,2,-166,8277,56,-58,-7
0.059207,8,-140,8352,19,-97,-45
0.059346,-18,-100,8315,56,-71,-13
0.059485,-41,-146,8254,31,-46,-20
0.059625,-4,-121,8282,44,-71,-26
0.059764,52,-109,8256,56,-90,-32
0.059903,24,-109,8339,38,-58,-1
0.060043,25,-125,8315,31,-90,-26
0.060182,31,-144,8286,38,-46,-20
0.060322,17,-103,8314,44,-46,-7
0.06046,25,-94,8343,38,-116,-32
0.0606,15,-113,8318,56,-65,-13
0.060745,55,-147,8282,6,-65,-26
0.060878,-5,-113,8288,75,-65,-20
0.061018,29,-153,8290,63,-65,-45
0.061157,-4,-144,8289,6,-90,12
0.061296,35,-149,8296,44,-26,-39
0.061436,38,-124,8335,63,-84,-32
0.061575,14,-102,8333,63,-109,-26
0.061714,23,-137,8308,12,-39,5
0.061854,22,-126,8308,50,-71,-51
0.061993,93,-112,8371,25,-52,-1
0.062132,3,-131,8320,82,-109,-20
0.062271,-10,-154,8308,-6,-46,-26
0.062411,26,-107,8290,63,-71,-26
0.06255,-4,-117,8275,38,-103,-20
0.062689,-17,-116,8291,56,-65,-45
0.06283,35,-142,8286,25,-52,12
0.062971,43,-110,8267,50,-109,-45
0.063107,11,-163,8296,31,-20,-1
0.063247,-21,-106,8320,75,-122,5
0.063389,56,-121,8360,0,-20,-32
0.063525,40,-109,8295,82,-84,-39
0.063664,-67,-141,8295,19,-90,-13
0.063804,17,-163,8337,31,-77,-20
0.063943,46,-133,8340,69,-39,-13
0.064082,56,-155,8285,38,-122,-70
0.064223,39,-171,8277,12,-7,37
0.064361,31,-184,8346,50,-103,-83
0.0645,19,-110,8262,75,-77,5
0.06464,59,-142,8328,-6,-20,-32
0.06478,23,-158,8316,56,-90,-1
0.064918,12,-136,8293,44,-103,-45
0.065058,48,-178,8328,94,-84,-45
0.065197,24,-132,8300,-44,-26,12
0.065337,-17,-146,8327,100,-116,-45
0.065475,25,-126,8366,-6,-20,-1
0.065615,32,-138,8299,25,-103,-51
0.065755,13,-143,8323,75,-58,-20
0.065893,0,-117,8278,25,-71,-7
0.066033,44,-130,8336,31,-58,-39
0.066173,56,-162,8362,50,-128,-39
0.066312,6,-149,8275,44,-1,-7
0.066451,90,-151,8294,12,-90,-26
0.06659,15,-110,8305,25,-65,-20
0.066729,25,-130,8331,75,-77,-13
0.066868,50,-120,8340,38,-52,-26
0.067008,-13,-161,8350,38,-77,-20
0.067147,-29,-131,8299,38,-52,12
0.067287,-51,-170,8327,88,-90,-58
0.067426,18,-178,8301,25,-58,-20
0.067565,41,-147,8348,38,-90,18
0.067704,9,-144,8264,25,-46,-45
0.067844,40,-88,8266,63,-58,-7
0.067984,28,-92,8294,19,-103,-39
0.068122,25,-100,8255,44,-39,-32
0.068262,73,-117,8269,44,-84,5
0.068401,12,-141,8291,56,-52,-13
0.068541,70,-165,8347,25,-65,-39
0.06868,37,-182,8317,50,-71,-26
0.068819,16,-140,8305,44,-103,-20
0.068958,3,-113,8270,75,-65,-64
0.069098,36,-154,8296,6,-65,12
0.069237,44,-110,8284,38,-52,12
0.069376,19,-91,8318,63,-84,-64
0.069515,6,-156,8325,38,-77,-1
0.069655,-6,-138,8320,44,-65,-26
0.069794,13,-107,8293,56,-58,-39
0.069933,17,-138,8282,6,-77,24
0.070073,-4,-190,8284,82,-90,-39
0.070212,28,-159,8276,38,-77,-26
0.070351,22,-146,8306,19,-33,5
0.070491,33,-99,8317,25,-122,-45
0.07063,5,-130,8299,56,-84,-32
0.070769,48,-115,8330,6,-58,-20
0.070909,12,-168,8315,82,-52,-13
0.071048,6,-183,8316,25,-65,-1
0.071187,13,-215,8313,56,-97,-26
0.071327,7,-168,8230,12,-52,-51
0.071466,6,-115,8286,56,-84,-13
0.071605,8,-142,8303,31,-52,5
0.071744,-8,-136,8346,88,-58,-32
0.071884,-31,-98,8339,19,-84,-26
0.072023,-25,-185,8274,50,-58,18
0.072162,20,-164,8282,44,-65,-39
0.072302,-15,-141,8283,69,-116,-39
0.072441,40,-149,8272,0,-39,-7
0.07258,5,-166,8270,63,-58,-1
0.072719,-10,-89,8292,25,-90,-39
0.072859,-41,-122,8233,88,-84,-51
0.072998,12,-91,8297,0,-26,-7
0.073137,0,-137,8298,44,-90,5
0.073277,-15,-151,8284,88,-90,-89
0.073416,18,-131,8324,-6,-1,37
0.073555,9,-140,8327,75,-135,-45
0.073695,31,-139,8365,31,-46,43
0.073834,19,-94,8303,50,-90,-77
0.073973,18,-138,8326,63,-71,-13
0.074112,16,-110,8295,12,-52,-20
0.074252,11,-109,8286,75,-58,-13
0.074391,35,-100,8275,50,-97,-39
0.074532,3,-118,8323,-13,-58,18
0.07467,-18,-146,8326,100,-65,-58
0.074811,-15,-199,8344,50,-71,-20
0.074949,8,-167,8255,12,-84,-1
0.075089,15,-140,8287,75,-58,-20
0.075227,1,-167,8305,50,-52,-51
0.075366,-20,-124,8295,44,-97,-13
0.075506,11,-146,8286,38,-39,-1
0.075645,39,-121,8287,31,-103,-32
0.075784,2,-114,8322,25,-33,-13
0.075924,17,-119,8329,63,-65,-39
0.076064,13,-150,8307,31,-65,-26
0.076204,4,-152,8289,38,-77,-13
0.076341,0,-120,8344,25,-71,-20
0.076482,2,-121,8349,38,-58,-39
0.07662,2,-117,8330,19,-71,-1
0.076761,-24,-126,8253,50,-84,-32
0.076899,-49,-93,8252,25,-71,5
0.077038,-15,-116,8256,69,-58,-70
0.077178,-43,-76,8284,50,-77,-7
0.077317,27,-84,8261,38,-58,-32
0.077456,50,-114,8284,44,-77,5
0.077596,8,-130,8255,44,-90,-58
0.077735,15,-179,8273,69,-33,-1
0.077874,0,-98,8298,25,-84,-58
0.078014,8,-110,8284,88,-77,43
0.078154,-4,-110,8270,6,-71,-83
0.078292,-41,-127,8268,25,-71,43
0.078431,-7,-109,8273,75,-71,-89
0.078571,37,-166,8323,50,-77,37
0.07871,13,-132,8319,38,-46,-39
0.07885,-17,-116,8284,25,-71,-13
0.078988,28,-156,8305,56,-90,-45
0.079129,-63,-157,8319,38,-71,-26
0.079267,-42,-153,8328,6,-52,18
0.079407,19,-57,8310,63,-128,-58
0.079546,30,-110,8260,38,-14,-20
0.079685,0,-132,8253,44,-90,-13
0.079825,31,-131,8265,19,-65,-20
0.079964,-16,-159,8346,69,-90,-45
0.080103,-46,-178,8295,-19,-58,37
0.080242,56,-117,8292,107,-58,-77
0.080382,6,-115,8332,25,-141,5
0.080521,13,-98,8311,31,-1,-20
0.08066,12,-123,8269,44,-122,-20
0.0808,-24,-102,8289,38,-52,-58
0.080939,-8,-129,8315,44,-71,31
0.081078,3,-169,8265,69,-71,-70
0.081217,33,-160,8309,-13,-52,18
0.081357,-8,-149,8279,69,-97,-51
0.081496,-1,-183,8298,44,-71,-13
0.081635,43,-146,8278,12,-20,-7
0.081775,18,-134,8301,69,-122,-32
0.081914,-4,-122,8256,25,-52,-13
0.082053,54,-110,8335,63,-97,-1
0.082193,32,-165,8319,12,-65,-13
0.082332,15,-128,8236,69,-71,-70
0.082471,13,-103,8286,25,-65,5
0.08261,-12,-140,8277,12,-58,-13
0.08275,19,-147,8328,56,-116,-20
0.08289,53,-115,8331,38,-39,-26
0.083028,-10,-214,8314,19,-65,-13
0.083168,35,-105,8289,50,-84,-7
0.083307,-13,-127,8311,69,-58,-64
0.083446,-20,-107,8281,-6,-46,12
0.083586,4,-104,8322,88,-109,-39
0.083725,54,-127,8329,12,-33,-45
0.083864,28,-135,8310,50,-109,24
0.084003,30,-131,8313,69,-71,-77
0.084143,-16,-129,8312,19,-71,12
0.084282,5,-149,8340,25,-58,5
0.084421,-11,-102,8244,38,-71,-58
0.084561,-13,-127,8351,82,-90,-13
0.0847,-6,-161,8321,0,-65,-1
0.08484,-10,-127,8282,82,-65,-45
0.084981,27,-95,8311,12,-97,-13
0.085118,16,-137,8305,63,-52,-13
0.085257,-18,-202,8307,0,-65,-13
0.085396,26,-127,8332,126,-116,-45
0.085535,36,-114,8335,-38,-14,12
0.085675,13,-92,8340,82,-128,-45
0.085816,19,-149,8341,31,-65,-13
0.085954,-12,-100,8326,0,-46,-7
0.086093,-27,-145,8300,100,-52,-39
0.086232,-24,-135,8289,6,-65,-1
0.086373,-52,-141,8308,56,-90,-77
0.086512,40,-227,8323,44,-65,31
0.08665,47,-172,8320,31,-71,-39
0.08679,39,-138,8305,25,-46,-20
0.086929,27,-147,8309,44,-103,-20
0.087068,46,-151,8332,69,-77,-26
0.087208,-27,-154,8337,31,-58,-45
0.087347,-23,-160,8344,31,-46,12
0.087486,17,-154,8313,63,-109,-51
0.087626,-30,-142,8369,6,-14,43
0.087767,28,-156,8310,94,-128,-83
0.087904,29,-139,8312,31,-58,-13
0.088044,-25,-136,8331,50,-65,5
0.088185,28,-68,8300,25,-84,-58
0.088321,17,-120,8333,94,-77,18
0.088461,-4,-139,8339,6,-33,-32
0.088601,19,-105,8309,75,-109,-32
0.088741,25,-108,8329,19,-20,-32
0.08888,-12,-106,8347,82,-116,-13
0.089019,40,-120,8322,-6,-65,-20
0.089158,-11,-176,8345,75,-65,5
0.089297,13,-127,8325,63,-84,-58
0.089437,81,-89,8280,-6,-39,-1
0.089576,29,-55,8319,75,-90,-26
0.089715,49,-129,8319,50,-90,-1
0.089855,40,-118,8362,19,-46,-45
0.089994,34,-142,8271,69,-84,12
0.090133,-4,-119,8301,63,-90,-45
0.090272,-19,-154,8342,12,-58,5
0.090412,21,-123,8286,56,-90,-32
0.090551,11,-127,8274,19,-46,-7
0.090691,31,-174,8314,88,-97,-26
0.09083,-17,-137,8351,19,-65,-13
0.090969,15,-78,8298,38,-84,-20
0.091108,-9,-135,8294,50,-46,-32
0.091248,-24,-109,8296,44,-84,-20
0.091389,47,-186,8267,82,-65,-7
0.091526,28,-173,8284,0,-46,-32
0.091666,27,-178,8279,88,-116,-20
0.091805,46,-161,8317,12,-14,-1
0.091944,36,-113,8290,38,-128,-64
0.092084,28,-130,8280,56,-46,18
0.092223,87,-124,8322,25,-84,-13
0.092362,69,-160,8305,63,-97,-45
0.092501,-22,-140,8327,31,-65,-7
0.092641,-12,-108,8304,38,-33,-1
0.09278,14,-94,8285,75,-90,-45
0.092919,13,-144,8325,38,-109,-13
0.093057,2,-138,8323,38,-1,-13
0.093199,10,-120,8274,63,-103,-58
0.093338,-11,-87,8313,50,-77,-1
0.093477,39,-94,8281,25,-71,-1
0.093616,-8,-158,8330,44,-39,-58
0.093755,-3,-105,8282,63,-77,5
0.093894,19,-118,8291,56,-77,-32
0.094034,26,-118,8343,25,-52,-20
0.094173,52,-138,8314,56,-90,5
0.094312,39,-112,8313,44,-71,-39
0.094451,20,-110,8339,31,-52,-32
0.094591,45,-85,8293,44,-65,-7
0.09473,-2,-115,8262,44,-58,-26
0.09487,-42,-152,8312,63,-71,-32
0.09501,10,-111,8328,25,-109,-32
0.095148,21,-66,8243,56,-26,12
0.095289,-15,-129,8304,56,-122,-58
0.095427,46,-140,8282,0,-20,5
0.095566,44,-121,8302,63,-90,-58
0.095705,47,-90,8333,25,-65,-1
0.095845,63,-108,8341,63,-71,-32
0.095984,36,-177,8342,12,-46,-1
0.096125,-5,-80,8309,31,-71,-39
0.096263,-1,-157,8266,69,-97,5
0.096404,13,-129,8262,50,-58,-45
0.096541,28,-156,8278,19,-58,-13
0.096681,64,-123,8280,50,-77,-20
0.09682,3,-111,8284,56,-52,-58
0.096959,27,-65,8318,25,-58,12
0.097099,94,-200,8320,56,-90,-13
0.097238,21,-151,8264,56,-71,-58
0.097377,15,-123,8245,69,-90,-13
0.097517,-6,-94,8296,0,-39,-26
0.097656,77,-69,8246,44,-58,-1
0.097795,39,-147,8286,69,-97,-39
0.097935,45,-161,8295,56,-46,-13
0.098074,2,-115,8316,-6,-77,-39
0.098213,8,-99,8373,31,-33,18
0.098352,18,-130,8259,31,-84,-51
0.098492,7,-135,8291,69,-58,18
0.098633,6,-152,8311,6,-65,-45
0.09877,41,-125,8306,113,-90,-26
0.09891,36,-123,8308,-13,-58,18
0.09905,18,-136,8284,88,-71,-64
0.099188,24,-143,8313,12,-39,24
0.099328,17,-139,8313,25,-90,-45
0.099467,-39,-112,8299,56,-52,-32
0.099606,-16,-85,8256,31,-97,-20
0.099746,1,-146,8305,63,-65,-26
0.099885,-16,-120,8298,44,-33,-13
0.100024,-1,-98,8249,44,-116,-45
0.100163,16,-181,8314,31,-52,-7
0.100303,-24,-162,8270,63,-77,-26
0.100442,-22,-175,8293,-6,-52,12
0.100581,23,-144,8301,119,-97,-58
0.100721,39,-172,8294,6,-20,18
0.10086,16,-172,8284,69,-116,-51
0.100999,9,-96,8274,25,-84,-26
0.101139,41,-107,8306,63,-33,-32
0.101278,-20,-140,8317,12,-65,31
0.101417,55,-105,8320,63,-109,-77
0.101556,32,-159,8250,38,-52,43
0.101696,69,-125,8334,56,-84,-64
0.101835,52,-76,8295,31,-77,5
0.101974,62,-143,8291,44,-46,-26
0.102114,4,-105,8289,25,-84,-45
0.102253,1,-132,8241,75,-77,-7
0.102392,12,-112,8316,-13,-33,-7
0.102531,13,-172,8333,69,-84,-26
0.102671,56,-137,8281,63,-103,-13
0.102811,84,-151,8294,38,-52,-58
0.10295,11,-148,8285,44,-58,-1
0.103089,29,-175,8310,0,-58,-26
0.103228,7,-133,8292,100,-65,-20
0.103368,-25,-128,8257,-6,-84,-1
0.103508,-14,-156,8296,82,-97,-64
0.103646,-2,-150,8285,6,-46,12
0.103785,31,-114,8234,38,-52,-1
0.103924,13,-138,8260,44,-77,-45
0.104064,-50,-161,8292,50,-103,-26
0.104203,4,-136,8337,25,-46,-26
0.104342,-7,-128,8300,6,-65,5
0.104482,4,-138,8270,82,-122,-39
0.104621,15,-152,8297,25,-33,-13
0.10476,-31,-147,8303,44,-77,-20
0.104901,-11,-123,8348,63,-52,-45
0.10504,51,-118,8345,31,-71,5
0.105179,12,-173,8264,31,-77,-13
0.105318,2,-109,8300,56,-71,-45
0.105457,48,-129,8317,19,-46,-1
0.105597,12,-112,8314,56,-84,-32
0.105736,16,-159,8339,107,-97,-51
0.105875,4,-141,8326,-50,-7,12
0.106014,-24,-127,8303,75,-128,-32
0.106154,42,-120,8284,19,-26,-32
0.106295,37,-112,8319,44,-97,24
0.106432,31,-123,8336,31,-39,-32
0.106571,-9,-100,8298,38,-77,-32
0.106711,23,-113,8327,63,-46,-32
0.106851,48,-145,8332,50,-97,-13
0.10699,36,-115,8305,25,-77,-7
0.107129,88,-146,8308,69,-84,-39
0.107268,41,-120,8302,6,-71,5
0.107407,4,-110,8384,63,-46,-13
0.107547,9,-136,8292,50,-97,-45
0.107686,-1,-120,8297,69,-46,-20
0.107825,18,-99,8313,-25,-71,5
0.107965,56,-125,8335,82,-97,-32
0.108104,38,-149,8300,25,-46,-7
0.108243,18,-150,8314,31,-77,-45
0.108384,7,-154,8315,82,-65,18
0.108522,18,-153,8315,44,-77,-83
0.108661,-5,-154,8358,12,-58,37
0.108801,30,-127,8264,94,-71,-45
0.10894,-18,-126,8274,12,-77,-45
0.109079,0,-169,8323,38,-77,-1
0.109219,41,-156,8290,94,-65,-39
0.109358,57,-145,8278,-6,-39,-1
0.109497,-8,-156,8276,69,-90,-7
0.109636,-10,-129,8330,25,-65,-45
0.109776,33,-140,8313,56,-97,-39
0.109915,11,-130,8313,44,-33,18
0.110054,14,-125,8303,19,-109,-32
0.110194,21,-118,8300,56,-58,-26
0.110333,38,-153,8313,31,-77,-39
0.110472,35,-168,8283,31,-46,5
0.110611,14,-107,8286,69,-122,-58
0.110751,21,-94,8273,12,-26,-1
0.11089,32,-104,8384,50,-97,-20
0.11103,28,-113,8353,50,-46,-1
0.111169,1,-150,8280,44,-97,-58
0.111308,61,-126,8311,31,-58,5
0.111447,12,-168,8257,31,-58,-26
0.111587,26,-189,8261,82,-109,-39
0.111726,25,-185,8316,69,-39,-13
0.111865,10,-138,8295,-6,-71,-13
0.112005,48,-152,8302,69,-103,-20
0.112144,-7,-88,8317,75,-65,-45
0.112283,39,-163,8314,6,-52,5
0.112423,56,-190,8328,75,-84,-45
0.112562,23,-64,8290,6,-52,18
0.112701,0,-85,8233,69,-71,-39
0.112841,27,-158,8272,19,-84,-20
0.11298,24,-131,8340,75,-71,-45
0.113119,29,-137,8287,44,-71,-13
0.113258,29,-198,8320,31,-77,-7
0.113397,21,-191,8325,25,-58,-13
0.113537,20,-115,8278,50,-77,-32
0.113676,-4,-112,8305,82,-84,-58
0.113815,-7,-116,8299,-6,-20,43
0.113955,4,-130,8256,88,-135,-64
0.114094,-5,-166,8309,12,-33,-1
0.114233,20,-151,8294,75,-103,-45
0.114373,10,-157,8230,25,-46,-7
0.114512,-15,-95,8270,56,-109,-26
0.114651,48,-110,8289,25,-46,-26
0.114791,-27,-102,8249,82,-84,-1
0.114931,8,-146,8286,12,-46,-20
0.115069,-5,-127,8349,50,-97,-77
0.115209,-48,-85,8325,38,-33,50
0.115348,29,-82,8335,44,-84,-39
0.115487,10,-112,8310,19,-71,-58
0.115626,0,-129,8308,50,-52,12
0.115767,-5,-78,8264,63,-97,-45
0.115905,16,-143,8304,12,-33,-7
0.116044,17,-131,8308,44,-90,-7
0.116184,10,-150,8328,38,-39,-32
0.116324,-4,-140,8356,63,-103,-13
0.116463,-47,-154,8280,25,-46,-7
0.116601,-13,-108,8289,38,-71,-32
0.116741,20,-114,8329,31,-90,-39
0.116881,35,-135,8274,44,-71,-13
0.11702,19,-131,8288,56,-65,-45
0.117159,4,-90,8372,19,-58,37
0.117298,22,-78,8349,44,-84,-45
0.117438,29,-103,8299,56,-71,-51
0.117577,36,-86,8364,63,-97,5
0.117717,17,-103,8347,12,6,-13
0.117855,9,-144,8265,75,-128,-32
0.117995,-37,-138,8262,31,-65,-26
0.118134,-22,-137,8223,69,-65,5
0.118273,28,-119,8260,25,-65,-39
0.118413,3,-133,8307,63,-103,-26
0.118552,52,-153,8256,19,-46,24
0.118694,4,-178,8250,63,-58,-64
0.118831,-42,-142,8288,19,-33,37
0.11897,-46,-150,8321,31,-97,-51
0.119109,17,-92,8288,82,-77,-32
0.119249,-13,-113,8305,-6,-46,18
0.119389,19,-125,8341,56,-65,-13
0.119527,29,-113,8293,69,-109,-70
0.119667,72,-88,8261,-6,-39,12
0.119806,30,-109,8339,88,-90,-45
0.119945,-3,-133,8392,6,-52,24
0.120085,-2,-152,8320,113,-90,-83
0.120224,18,-140,8288,19,-65,12
0.120363,38,-141,8299,44,-39,-13
0.120503,53,-95,8253,69,-122,-39
0.120642,6,-120,8266,38,-58,-13
0.120781,16,-177,8243,25,-39,-32
0.12092,-8,-111,8246,107,-90,-20
0.12106,-34,-59,8251,12,-77,-1
0.121199,44,-178,8302,19,-52,-26
0.121338,-25,-138,8336,50,-58,-13
0.121478,25,-118,8284,100,-90,-39
0.121617,40,-137,8277,6,-84,-39
0.121756,30,-120,8291,75,-58,-7
0.121895,-26,-135,8297,-19,-39,5
0.122035,80,-74,8264,119,-109,-64
0.122174,76,-69,8302,-13,-33,24
0.122313,12,-135,8296,107,-122,-45
0.122453,-34,-109,8368,-13,-33,-39
0.122592,70,-70,8294,82,-84,5
0.122731,38,-127,8302,31,-58,-32
0.122872,52,-155,8293,56,-77,-20
0.123012,-17,-154,8287,19,-77,-26
0.123149,-12,-144,8265,50,-52,-45
0.123288,18,-75,8322,19,-71,24
0.123429,26,-144,8291,82,-97,-32
0.123567,-22,-78,8247,31,-58,-45
0.123706,23,-97,8263,38,-71,-13
0.123846,23,-113,8253,50,-65,-51
0.123985,-1,-112,8283,38,-46,43
0.124124,21,-110,8273,63,-97,-77
0.124263,0,-107,8292,88,-77,-13
0.124403,5,-149,8308,-13,-52,-20
0.124542,-18,-150,8341,69,-71,5
0.124682,3,-134,8331,-13,-90,-39
0.124821,17,-105,8340,94,-77,-13
0.12496,15,-89,8278,25,-58,-20
0.125101,2,-69,8275,0,-46,-45
0.12524,45,-110,8296,88,-103,-32
0.125378,13,-176,8287,56,-52,-7
0.125517,7,-140,8271,12,-65,5
0.125657,60,-143,8296,69,-77,-89
0.125796,34,-138,8342,0,-58,18
0.125935,49,-137,8309,82,-90,-7
0.126075,13,-141,8252,50,-90,-45
0.126215,53,-167,8276,19,-77,-20
0.126353,43,-107,8303,88,-58,5
0.126493,-10,-149,8344,25,-84,-64
0.126632,6,-134,8307,56,-46,-1
0.126771,26,-151,8300,25,-65,-20
0.12691,18,-134,8344,25,-65,-1
0.12705,15,-142,8340,75,-90,-51
0.127189,22,-121,8267,0,-52,-1
0.127328,48,-163,8276,56,-90,-26
0.127468,12,-127,8298,31,-84,-45
0.127607,10,-108,8307,56,-33,-7
0.127746,-8,-115,8310,63,-90,-26
0.127886,12,-135,8300,-6,-71,-13
0.128025,-30,-98,8332,94,-77,-58
0.128164,-13,-124,8308,19,-97,-7
0.128304,-39,-152,8317,56,-33,-13
0.128443,21,-166,8307,0,-109,-13
0.128582,18,-155,8296,107,-52,-20
0.128721,-25,-127,8341,25,-141,-51
0.128861,43,-127,8316,63,-1,-7
0.129,1,-133,8303,31,-97,-39
0.129139,-16,-113,8298,6,-26,31
0.129279,-7,-143,8303,75,-116,-51
0.129418,28,-161,8307,44,-90,-20
0.129557,-22,-116,8302,19,-33,-26
0.129697,-35,-145,8340,56,-84,-20
0.129836,14,-116,8330,88,-65,-7
0.129975,52,-164,8296,19,-90,-64
0.130115,18,-117,8319,31,-20,18
0.130254,17,-94,8317,19,-77,-26
0.130393,25,-178,8283,100,-97,-58
0.130532,10,-112,8278,6,-58,-7
0.130672,69,-145,8304,56,-65,-26
0.130811,0,-143,8334,44,-84,-13
0.13095,12,-97,8313,82,-77,-13
0.13109,-2,-153,8375,-32,-58,-7
0.131229,70,-152,8306,82,-90,-32
0.131368,9,-114,8283,44,-65,-39
0.131508,-34,-157,8321,38,-52,5
0.131647,-2,-159,8291,50,-84,-20
0.131786,16,-114,8289,56,-71,-1
0.131927,39,-126,8313,19,-58,-32
0.132065,50,-168,8300,44,-65,-7
0.132204,-4,-174,8329,56,-103,-32
0.132343,10,-91,8280,63,-84,-20
0.132483,31,-184,8311,25,-46,-20
0.132622,26,-118,8311,75,-109,-20
0.132761,21,-132,8270,19,-58,-26
0.132901,2,-132,8299,63,-84,-32
0.13304,37,-162,8338,44,-33,5
0.133179,39,-161,8280,44,-77,-26
0.133319,39,-138,8289,31,-84,-45
0.133458,28,-172,8292,31,-52,-13
0.133597,-7,-135,8284,100,-90,-20
0.133737,38,-119,8325,-32,-65,18
0.133876,17,-106,8292,100,-77,-89
0.134015,28,-142,8269,-6,-58,18
0.134154,19,-157,8309,82,-135,-39
0.134294,68,-106,8317,19,-7,-20
0.134433,37,-126,8304,25,-84,-45
0.134572,-8,-130,8292,44,-65,-1
0.134712,-65,-182,8311,63,-77,-45
0.134851,36,-150,8238,0,-71,-7
0.13499,-15,-130,8229,50,-39,-7
0.13513,16,-109,8327,69,-90,-13
0.135269,-23,-84,8314,44,-77,-32
0.135408,-29,-135,8364,12,-39,-13
0.135548,-29,-156,8293,31,-90,-20
0.135686,12,-147,8234,107,-90,-45
0.135826,29,-135,8305,6,-39,31
0.135966,18,-92,8278,63,-116,-45
0.136105,13,-133,8259,38,-26,-7
0.136244,46,-179,8352,56,-71,-13
0.136384,10,-124,8318,25,-97,-20
0.136523,-12,-115,8299,82,-71,-39
0.136662,8,-174,8338,12,-71,-13
0.136801,14,-120,8279,75,-71,-32
0.136941,66,-134,8284,25,-58,-1
0.13708,18,-143,8342,63,-97,-58
0.137219,42,-84,8269,6,-20,5
0.137359,10,-58,8300,69,-141,-13
0.137498,-24,-127,8325,44,-14,-32
0.137637,50,-141,8282,38,-90,-26
0.137777,11,-165,8251,12,-58,5
0.137916,26,-97,8291,113,-90,-39
0.138055,-14,-126,8348,12,-71,-20
0.138194,-11,-155,8314,31,-65,5
0.138334,13,-94,8269,82,-90,-58
0.138473,33,-79,8261,12,-71,12
0.138612,-12,-116,8322,82,-77,-39
0.138752,12,-111,8360,38,-77,-7
0.138891,13,-131,8313,75,-77,-26
0.13903,2,-112,8264,12,-33,-26
0.13917,32,-149,8265,44,-103,-7
0.139309,44,-153,8295,31,-58,-45
0.139448,29,-99,8321,50,-65,-26
0.139588,20,-99,8250,44,-77,-39
0.139727,-4,-140,8283,0,-65,12
0.139866,-3,-171,8273,88,-84,-51
0.140005,-49,-129,8297,-6,-77,-20
0.140145,-5,-114,8354,94,-71,-26
0.140284,11,-138,8336,19,-103,-13
0.140423,-1,-172,8312,19,-26,-26
0.140563,43,-141,8310,69,-90,-20
0.140702,-34,-112,8295,56,-109,-45
0.140841,-26,-129,8272,25,-20,-13
0.140981,-40,-103,8269,38,-97,-32
0.14112,-18,-127,8275,69,-65,-20
0.141259,21,-152,8320,25,-65,18
0.141399,35,-108,8349,69,-90,-58
0.141538,29,-165,8313,6,-46,-26
0.141677,46,-138,8342,63,-84,-26
0.141816,49,-118,8348,56,-58,5
0.141956,50,-141,8326,31,-90,-39
0.142095,10,-130,8249,56,-71,12
0.142234,40,-109,8292,19,-71,-45
0.142374,-17,-131,8308,94,-65,-20
0.142513,-24,-159,8319,-19,-71,-7
0.142652,-15,-184,8265,82,-97,-51
0.142792,68,-130,8294,12,-65,12
0.142931,16,-159,8304,88,-90,-51
0.14307,3,-119,8364,6,-20,-13
0.14321,-25,-133,8323,88,-128,-32
0.143349,-38,-153,8312,19,-39,-7
0.143488,35,-122,8311,19,-103,-13
0.143627,86,-138,8360,56,-33,-7
0.143767,33,-129,8286,38,-103,-70
0.143906,23,-127,8287,25,-71,24
0.144045,9,-187,8326,69,-65,-20
0.144185,-30,-123,8311,69,-71,-20
0.144324,29,-103,8273,31,-90,-45
0.144463,25,-144,8297,38,-26,24
0.144603,79,-111,8279,56,-97,-58
0.144742,-4,-131,8257,12,-109,-13
0.144881,33,-112,8278,82,-33,-32
0.145021,18,-123,8337,12,-71,5
0.14516,-50,-108,8320,25,-65,-45
0.145299,16,-153,8336,56,-77,-7
0.145439,29,-116,8334,50,-90,-39
0.145578,-41,-126,8310,6,-58,-1
0.145717,-28,-87,8318,63,-52,-13
0.145856,32,-109,8298,12,-84,-7
0.145996,-4,-184,8304,82,-58,-32
0.146135,28,-142,8382,6,-84,-39
0.146274,25,-162,8333,31,-39,18
0.146414,27,-164,8239,88,-109,-89
0.146553,1,-112,8285,19,-33,24
0.146692,41,-125,8337,56,-77,-20
0.146832,31,-91,8337,31,-52,-13
0.146971,-1,-123,8327,25,-71,-13
0.14711,40,-118,8310,69,-116,-32
0.147249,50,-102,8261,44,-52,-13
0.147389,-29,-92,8290,56,-84,-26
0.147528,29,-103,8334,50,-71,-20
0.147667,18,-161,8304,38,-58,-20
0.147807,21,-112,8316,25,-77,-26
0.147946,32,-153,8289,50,-84,-7
0.148085,-3,-133,8308,50,-46,-7
0.148225,47,-153,8303,25,-97,-58
0.148364,57,-142,8280,56,-71,31
0.148503,34,-130,8256,69,-97,-58
0.148643,13,-107,8284,25,-71,-7
0.148782,37,-154,8300,31,-52,-26
0.148921,48,-134,8305,69,-122,-45
0.14906,-35,-135,8332,-6,-7,-7
0.1492,31,-100,8284,50,-128,-26
0.149339,30,-139,8340,82,-39,-1
0.149478,8,-169,8335,12,-71,-7
0.149618,24,-106,8299,63,-109,-51
0.149757,15,-128,8266,19,-26,-20
0.149896,-42,-169,8317,63,-77,-7
0.150036,-35,-187,8343,6,-90,-13
0.150175,-6,-141,8345,82,-65,-32
0.150314,-14,-125,8332,38,-84,-13
0.150454,-37,-169,8276,56,-65,-26
0.150593,-47,-128,8306,50,-97,-26
0.150732,33,-107,8286,6,-1,18
0.150872,32,-161,8260,69,-128,-70
0.151013,37,-98,8272,38,-84,-20
0.15115,26,-109,8349,44,-52,-7
0.151291,-10,-93,8285,19,-71,-26
0.151429,33,-113,8304,50,-71,-20
0.151568,1,-124,8334,38,-77,-39
0.15171,5,-166,8331,44,-52,-20
0.15185,3,-117,8341,44,-71,12
0.151986,-15,-144,8315,25,-58,-45
0.152125,34,-179,8292,56,-77,-13
0.152266,10,-148,8300,25,-46,-13
0.152404,-43,-152,8285,38,-58,-32
0.152545,51,-118,8266,56,-103,-13
0.152683,-15,-181,8288,38,-65,-26
0.152822,-28,-143,8270,50,-58,-7
0.152961,9,-90,8260,44,-90,-13
0.1531,26,-115,8234,38,-84,-39
0.15324,21,-79,8308,50,-33,-7
0.153379,11,-108,8268,50,-109,-26
0.153519,-7,-123,8336,31,-58,-13
0.153658,-18,-185,8340,63,-77,-26
0.153797,-27,-64,8318,31,-90,-7
0.153936,21,-151,8304,50,-39,-32
0.154076,47,-126,8305,6,-77,-1
0.154216,-5,-140,8335,44,-103,-45
0.154354,-24,-132,8318,25,-52,-1
0.154495,-13,-125,8347,50,-71,-13
0.154633,-1,-129,8317,44,-65,-39
0.154772,-2,-152,8325,56,-97,-13
0.154911,-22,-90,8310,6,-52,-20
0.155053,1,-61,8333,50,-71,-13
0.155191,13,-98,8322,82,-52,-39
0.155329,13,-137,8319,6,-65,-13
0.155469,42,-115,8288,69,-97,-13
0.155608,-32,-125,8276,31,-52,-39
0.155748,29,-142,8289,-19,-46,-13
0.155886,51,-116,8309,100,-109,-20
0.156027,-15,-119,8320,12,-46,-45
0.156165,6,-129,8305,56,-77,5
0.156305,38,-121,8308,44,-33,-45
0.156444,43,-183,8248,25,-90,-1
0.156583,40,-147,8217,100,-90,-51
0.156722,23,-154,8269,-19,-46,50
0.156862,55,-157,8317,82,-71,-70
0.157001,72,-130,8344,19,-90,5
0.15714,17,-136,8331,63,-65,-39
0.15728,-4,-118,8328,38,-71,-13
0.157419,56,-92,8324,12,-52,-39
0.157558,38,-209,8332,75,-103,-32
0.157697,82,-106,8307,31,-52,-7
0.157837,34,-153,8276,69,-71,-20
0.157976,33,-96,8299,6,-97,-32
0.158115,26,-154,8277,56,-58,-7
0.158255,36,-84,8279,38,-109,-13
0.158394,26,-136,8336,44,-58,-26
0.158533,-4,-134,8372,56,-46,-32
0.158673,29,-115,8302,12,-116,-20
0.158812,-28,-126,8237,75,-39,12
0.158951,-45,-143,8284,38,-65,-45
0.159091,44,-120,8266,38,-77,-1
0.15923,15,-174,8254,31,-71,-45
0.159369,42,-137,8258,63,-90,-26
0.159508,40,-112,8293,12,-65,24
0.159648,6,-181,8324,63,-46,-45
0.159789,29,-97,8247,50,-65,-39
0.159927,4,-178,8286,69,-116,-13
0.160067,32,-163,8281,6,-20,-13
0.160206,54,-147,8279,44,-58,-26
0.160345,72,-124,8262,63,-109,-39
0.160484,14,-135,8276,0,-33,-13
0.160625,12,-167,8313,94,-103,-32
0.160762,23,-107,8305,19,-39,-1
0.160902,-74,-156,8289,38,-71,-20
0.161041,-57,-164,8322,44,-46,-7
0.16118,29,-104,8295,69,-116,-58
0.161321,17,-80,8312,-6,-33,5
0.16146,44,-123,8344,69,-71,-32
0.161598,-8,-150,8270,25,-65,-1
0.161738,-5,-134,8298,75,-90,-51
0.161878,22,-94,8342,31,-52,-20
0.162016,-23,-153,8333,12,-90,-20
0.162155,40,-162,8290,50,-33,-13
0.162296,80,-123,8355,69,-116,-26
0.162434,41,-130,8359,-19,-39,-1
0.162575,5,-61,8345,100,-58,-58
0.162713,53,-95,8286,6,-77,5
0.162852,5,-85,8283,38,-71,-20
0.162991,1,-70,8324,75,-84,-32
0.163132,14,-135,8318,6,-52,5
0.16327,16,-179,8355,56,-46,-32
0.163409,30,-130,8332,0,-84,-7
0.163549,20,-142,8309,63,-65,-58
0.163691,25,-113,8321,25,-77,5
0.163827,-6,-107,8287,63,-84,-32
0.163967,13,-102,8329,38,-58,-20
0.164106,-11,-155,8351,50,-39,-32
0.164245,-16,-128,8246,38,-103,-13
0.164384,-29,-150,8295,19,-52,-45
0.164524,9,-150,8365,44,-65,-7
0.164663,31,-180,8328,44,-65,-39
0.164802,26,-150,8322,44,-58,-26
0.164941,-4,-147,8311,69,-97,-13
0.165081,9,-121,8327,0,-71,-7
0.16522,31,-154,8298,88,-65,-64
0.16536,57,-137,8275,0,-65,18
0.1655,29,-114,8283,63,-90,-26
0.165639,32,-100,8233,31,-90,-51
0.165777,-30,-130,8264,63,-71,12
0.165917,-25,-80,8284,31,-84,-32
0.166057,-6,-149,8329,44,-26,-13
0.166195,23,-132,8298,50,-135,-20
0.166335,32,-120,8267,31,-33,-32
0.166474,40,-138,8316,25,-103,-20
0.166613,-32,-80,8312,63,-39,-7
0.166753,-13,-115,8265,25,-90,-32
0.166892,11,-151,8303,38,-65,-7
0.167031,-23,-156,8241,69,-65,-32
0.167171,-27,-140,8306,0,-77,-26
0.16731,-26,-119,8327,82,-65,-20
0.167449,18,-110,8324,69,-90,-26
0.167589,-38,-147,8332,-6,-77,-7
0.167728,-10,-127,8307,69,-77,-20
0.167867,19,-136,8309,25,-52,-26
0.168006,-4,-91,8271,31,-90,-7
0.168146,-6,-142,8281,63,-65,-45
0.168285,-25,-127,8347,38,-90,-13
0.168426,21,-118,8323,6,-33,-26
0.168564,62,-121,8280,69,-122,-26
0.168705,36,-98,8279,-6,-14,-26
0.168842,36,-135,8266,82,-122,-20
0.168982,2,-81,8321,25,-33,-32
0.169123,36,-123,8311,63,-77,-32
0.16926,19,-130,8311,12,-90,5
0.1694,32,-123,8286,56,-65,-20
0.16954,-10,-168,8326,50,-71,-51
0.169678,12,-155,8307,44,-71,-26
0.169818,20,-113,8306,38,-71,-13
0.169957,-13,-122,8343,50,-65,-7
0.170097,-24,-152,8340,31,-97,-45
0.170235,11,-144,8349,56,-39,-1
0.170375,21,-159,8300,38,-71,-45
0.170514,-29,-154,8336,44,-77,-7
0.170653,25,-94,8342,38,-71,-20
0.170793,-13,-131,8298,44,-58,-7
0.170932,-5,-146,8262,63,-71,-32
0.171071,-29,-152,8341,19,-58,-7
0.171211,-25,-183,8297,19,-84,-58
0.17135,22,-182,8292,82,-58,18
0.171489,30,-139,8332,38,-65,-45
0.171628,9,-197,8299,25,-71,24
0.171768,-13,-167,8295,63,-71,-70
0.171907,30,-72,8295,31,-71,-1
0.172047,8,-167,8305,44,-71,-39
0.172186,-20,-130,8283,31,-65,37
0.172325,48,-112,8266,69,-103,-96
0.172465,10,-139,8272,12,-20,37
0.172604,-15,-173,8274,69,-109,-58
0.172743,35,-152,8262,31,-77,-32
0.172883,28,-106,8271,19,-46,50
0.173022,61,-112,8278,38,-84,-77
0.173161,21,-185,8360,56,-46,12
0.1733,-17,-121,8300,31,-116,-39
0.17344,-11,-108,8328,63,-39,-7
0.173579,63,-68,8270,44,-71,-51
0.173718,-8,-101,8258,38,-77,-20
0.173858,12,-128,8298,31,-97,-13
0.173997,15,-184,8279,50,-46,-20
0.174136,29,-131,8308,38,-26,-13
0.174277,70,-86,8293,56,-122,-26
0.174415,33,-121,8286,56,-58,-39
0.174554,-1,-136,8299,25,-46,-7
0.174693,-30,-150,8245,38,-77,-32
0.174832,46,-173,8310,31,-77,-7
0.174972,-6,-167,8303,38,-65,-20
0.175111,-18,-167,8324,69,-84,-20
0.17525,2,-172,8323,0,-14,-39
0.17539,4,-155,8298,82,-97,-13
0.175529,9,-186,8274,0,-90,-7
0.175668,40,-144,8279,56,-52,-26
0.175808,11,-149,8278,63,-97,-13
0.175947,-9,-157,8329,50,-97,-45
0.176087,13,-143,8354,19,-1,-7
0.176226,-13,-175,8312,69,-116,-26
0.176365,17,-162,8278,38,-71,-13
0.176511,43,-107,8300,12,-46,-26
0.176644,18,-100,8303,50,-71,-7
0.176783,-12,-133,8332,56,-71,-26
0.176922,43,-125,8317,44,-103,-51
0.177062,10,-180,8310,38,-58,24
0.177201,-6,-91,8309,19,-65,-32
0.17734,19,-151,8343,88,-58,-32
0.177481,13,-157,8342,-6,-58,-26
0.177619,39,-119,8307,38,-90,5
0.17776,88,-150,8343,63,-26,-32
0.177897,-8,-170,8318,50,-109,-26
0.178037,6,-172,8262,-19,6,5
0.178176,14,-134,8360,88,-90,-39
0.178315,7,-155,8352,0,-103,5
0.178455,11,-128,8275,69,-58,-64
0.178596,46,-83,8304,56,-58,-20
0.178733,-8,-130,8308,-13,-58,-1
0.178873,-38,-126,8313,56,-39,-20
0.179013,-19,-88,8281,56,-109,-32
0.179151,13,-160,8276,6,-14,18
0.179291,-33,-182,8316,50,-84,-64
0.17943,-1,-134,8317,88,-97,-13
0.179569,36,-115,8279,31,-65,-20
0.179708,14,-169,8306,25,-77,-7
0.179848,17,-97,8314,50,-52,-32
0.179987,12,-127,8326,56,-90,-20
0.180127,34,-98,8272,44,-65,-39
0.180266,32,-100,8305,56,-77,-1
0.180405,68,-104,8320,31,-65,-20
0.180544,51,-185,8352,44,-46,-7
0.180684,33,-140,8268,63,-135,-64
0.180823,42,-148,8290,6,-65,5
0.180962,-7,-121,8312,82,-14,-7
0.181102,32,-86,8314,6,-122,-58
0.181241,-26,-128,8247,69,-39,24
0.18138,-15,-146,8263,31,-71,-45
0.181519,4,-132,8260,63,-77,-13
0.181659,43,-142,8339,19,-103,-45
0.181798,31,-114,8315,31,-20,37
0.181937,-2,-151,8304,82,-97,-58
0.182077,-21,-148,8290,19,-65,-7
0.182216,18,-125,8330,69,-109,-58
0.182355,35,-133,8303,12,-1,37
0.182494,10,-154,8302,63,-109,-26
0.182634,-30,-180,8281,25,-58,-51
0.182773,-8,-170,8359,69,-71,-26
0.182913,3,-118,8328,50,-58,18
0.183052,7,-126,8271,-13,-84,-26
0.183191,54,-125,8359,94,-77,-32
0.183331,10,-163,8320,38,-58,-13
0.18347,39,-118,8314,31,-71,-7
0.183609,-13,-133,8306,12,-71,-39
0.183748,36,-160,8345,88,-52,-7
0.183888,-12,-171,8289,38,-109,-32
0.184027,14,-144,8309,38,-58,-26
0.184166,-8,-178,8270,12,-52,5
0.184306,5,-149,8301,63,-103,-45
0.184445,32,-137,8296,44,-71,-20
0.184587,36,-149,8313,63,-58,5
0.184723,35,-132,8353,25,-84,-64
0.184863,46,-122,8311,56,-58,31
0.185002,4,-127,8283,6,-90,-51
0.185141,75,-129,8343,69,-84,-7
0.185281,39,-144,8313,38,-33,-26
0.18542,55,-114,8290,12,-84,-32
0.185559,25,-104,8335,75,-109,-13
0.1857,-16,-108,8295,63,-71,-1
0.185838,-11,-148,8314,6,-77,-26
0.185977,75,-152,8350,50,-58,-32
0.186117,3,-209,8312,31,-58,-20
0.186256,20,-122,8324,88,-122,-39
0.186395,20,-118,8303,-6,-39,-20
0.186534,26,-126,8338,38,-77,24
0.186675,73,-166,8315,63,-26,-45
0.186813,37,-162,8305,6,-103,-7
0.186952,4,-149,8319,82,-65,-77
0.187092,33,-119,8325,19,-52,43
0.187233,-41,-176,8360,38,-77,-45
0.18737,30,-135,8276,44,-71,-20
0.187509,35,-165,8272,44,-46,-13
0.187649,41,-133,8270,12,-84,-58
0.187789,25,-138,8319,69,-65,-13
0.187928,32,-157,8320,6,-46,-13
0.188067,17,-140,8283,69,-58,-32
0.188206,-61,-169,8288,50,-77,-7
0.188346,-4,-176,8352,38,-109,-39
0.188485,16,-98,8267,75,-26,-13
0.188624,32,-121,8281,12,-77,-13
0.188763,45,-112,8276,44,-84,-13
0.188903,-59,-129,8310,82,-58,-64
0.189042,-38,-167,8303,6,-46,50
0.189181,18,-159,8271,50,-65,-32
0.189321,8,-194,8325,69,-109,-70
0.18946,-28,-116,8286,0,-52,24
0.189599,-50,-150,8330,56,-71,-20
0.18974,-21,-144,8310,25,-77,-51
0.189879,16,-132,8306,63,-52,-1
0.190017,36,-120,8308,19,-97,-45
0.190157,61,-130,8308,44,-52,-26
0.190296,81,-120,8321,31,-58,-20
0.190435,32,-119,8303,44,-52,18
0.190576,25,-149,8319,75,-77,-89
0.190718,17,-125,8317,31,-39,56
0.190853,32,-94,8300,25,-97,-70
0.190993,25,-98,8313,38,-39,-13
0.191132,41,-137,8346,19,-116,-32
0.191271,14,-109,8326,94,-26,-1
0.19141,25,-103,8289,-19,-84,-32
0.19155,41,-131,8297,63,-71,-13
0.191689,39,-138,8324,75,-52,-39
0.191828,33,-186,8344,-19,-84,-1
0.191968,-20,-98,8327,63,-77,-13
0.192107,17,-134,8276,75,-71,-39
0.192246,14,-123,8292,6,-65,-20
0.192389,70,-92,8262,50,-77,-7
0.192525,-5,-141,8322,69,-103,-39
0.192664,14,-131,8318,0,-33,-20
0.192803,33,-100,8290,94,-71,-13
0.192943,-2,-135,8332,0,-52,-7
0.193082,12,-127,8352,94,-122,-64
0.193221,11,-107,8280,31,-33,12
0.193361,40,-89,8295,12,-58,-26
0.1935,52,-149,8284,82,-116,-58
0.193639,10,-171,8265,-19,18,18
0.19378,-6,-118,8272,82,-148,-45
0.193919,40,-110,8328,38,-65,-13
0.194057,38,-117,8335,50,-71,-39
0.194198,-7,-142,8284,12,-52,-7
0.194336,-13,-114,8244,75,-84,-26
0.194475,-25,-150,8295,25,-77,12
0.194614,24,-151,8324,31,-46,-51
0.194754,51,-102,8265,100,-97,-26
0.194893,-6,-58,8262,-25,-46,-39
0.195032,2,-139,8280,88,-90,5
0.195171,20,-72,8279,63,-71,-26
0.195311,12,-108,8313,19,-71,-20
0.19545,2,-119,8345,44,-97,-45
0.19559,61,-139,8303,69,-77,-7
0.195729,71,-92,8313,6,-58,-7
0.195869,6,-120,8286,75,-97,-51
0.196008,10,-120,8261,31,-52,37
0.196147,8,-179,8270,38,-65,-39
0.196286,11,-176,8252,56,-109,-32
0.196425,-10,-91,8340,19,-52,-39
0.196565,-46,-64,8309,56,-84,12
0.196706,47,-131,8305,56,-52,-39
0.196843,17,-172,8307,19,-84,-1
0.196983,-3,-116,8304,44,-39,-39
0.197122,-35,-93,8255,56,-90,-7
0.197262,14,-127,8304,6,-20,-1
0.197403,32,-122,8255,94,-103,-51
0.197542,-22,-120,8240,6,-7,-1
0.197679,20,-95,8257,69,-116,-26
0.197819,-3,-95,8329,25,-84,-1
0.197959,7,-118,8286,69,-26,-51
0.198097,4,-131,8296,19,-90,-26
0.198236,5,-131,8295,25,-71,5
0.198376,-26,-124,8236,50,-46,-51
0.198515,10,-118,8303,25,-90,5
0.198654,12,-133,8278,44,-52,-7
0.198794,33,-152,8296,44,-97,-58
0.198933,-33,-89,8271,63,-71,-20
0.199072,-13,-117,8274,31,-84,-20
0.199211,-44,-118,8298,38,-39,-13
0.199351,32,-107,8254,63,-90,-7
0.19949,27,-138,8335,63,-52,-26
0.19963,54,-176,8310,12,-65,-20
0.199769,12,-107,8302,31,-116,-45
0.199908,60,-108,8369,56,-26,-7
0.200047,1,-118,8335,38,-90,-13
0.200187,7,-146,8305,50,-84,-20
0.200326,37,-113,8263,63,-58,-26
0.200467,43,-74,8288,-6,-77,-32
0.200605,-9,-124,8271,63,-84,-20
0.200744,-21,-181,8329,19,-77,-13
0.200883,8,-146,8308,69,-84,-26
0.201023,28,-76,8334,31,-26,-13
0.201162,56,-92,8272,38,-84,5
0.201301,-1,-70,8296,38,-33,-70
0.201442,38,-155,8310,56,-97,5
0.20158,28,-198,8319,12,-71,-45
0.201719,-14,-141,8308,50,-33,18
0.201859,3,-143,8285,19,-65,-51
0.201998,15,-157,8272,63,-116,-7
0.202137,0,-123,8296,31,-14,-20
0.202276,-28,-125,8280,50,-97,-45
0.202416,10,-96,8276,38,-71,-20
0.202555,2,-176,8315,44,-52,5
0.202694,25,-125,8272,6,-103,-58
0.202834,23,-138,8286,82,-58,5
0.202973,-40,-149,8287,63,-71,5
0.203112,24,-134,8273,0,-77,-58
0.203252,-19,-138,8309,56,-52,24
0.203391,21,-85,8314,82,-122,-58
0.20353,-11,-89,8316,-6,-20,5
0.203669,62,-138,8286,82,-97,-32
0.203809,-8,-130,8323,50,-84,-45
0.20395,28,-136,8358,-6,-58,5
0.204087,-6,-146,8336,75,-103,-51
0.204228,-9,-107,8312,-13,-20,50
0.204367,-46,-115,8222,100,-97,-70
0.204505,3,-173,8321,6,-97,-13
0.204644,-11,-131,8343,69,-58,-26
0.204784,-18,-154,8369,12,-46,24
0.204923,-15,-170,8298,75,-84,-83
0.205062,-6,-113,8303,38,-109,5
0.205202,23,-178,8307,38,-39,-1
0.205341,-1,-157,8297,44,-90,-26
0.205481,58,-118,8310,63,-65,-58
0.20562,28,-110,8281,38,-90,24
0.205759,24,-95,8315,44,-39,-45
0.205899,50,-125,8306,38,-84,-32
0.206038,18,-157,8333,19,-52,18
0.206178,1,-147,8322,82,-97,-64
0.206317,25,-159,8341,25,-33,24
0.20646,30,-126,8288,19,-103,-64
0.206595,25,-142,8358,94,-77,-7
0.206734,57,-111,8298,25,-20,-13
0.206873,15,-127,8314,19,-97,-26
0.207013,76,-49,8328,31,-52,-13
0.207152,7,-112,8310,63,-90,-13
0.207293,23,-163,8278,38,-58,-51
0.207431,18,-158,8323,44,-71,5
0.20757,70,-187,8308,19,-84,-26
0.207709,41,-176,8256,50,-52,-13
0.207849,18,-176,8265,56,-77,-51
0.207988,7,-140,8281,44,-71,-7
0.208127,30,-80,8291,63,-52,-13
0.208267,7,-85,8307,12,-71,-1
0.208406,64,-133,8287,69,-103,-58
0.208545,9,-150,8317,6,-39,5
0.208685,-33,-115,8309,44,-84,-20
0.208824,-20,-173,8328,50,-65,-51
0.208963,-7,-147,8218,56,-71,12
0.209103,34,-126,8315,38,-90,-51
0.209242,51,-205,8303,44,-39,-32
0.209381,6,-95,8266,38,-109,5
0.20952,52,-83,8291,44,-39,-32
0.20966,-29,-103,8362,100,-122,-51
0.209799,42,-93,8321,-6,-33,43
0.209938,39,-118,8279,50,-58,-64
0.210078,55,-166,8242,50,-116,-13
0.210217,74,-96,8342,25,-33,-20
0.210356,51,-66,8291,12,-84,-7
0.210496,-11,-122,8330,82,-65,-45
0.210635,28,-140,8319,38,-65,-13
0.210774,47,-126,8317,25,-77,-13
0.210914,63,-146,8265,69,-52,-7
0.211053,67,-125,8261,31,-128,-39
0.211192,54,-112,8294,38,-33,18
0.211331,9,-112,8369,25,-77,-51
0.211471,26,-111,8312,69,-84,-45
0.21161,36,-143,8297,12,-65,18
0.211749,68,-166,8309,50,-65,-39
0.211889,42,-146,8313,50,-77,-7
0.212028,-40,-152,8348,31,-90,-58
0.212167,36,-123,8213,25,-39,-1
0.212307,40,-165,8260,88,-116,-20
0.212446,22,-123,8314,19,-52,-39
0.212585,60,-84,8301,56,-90,-13
0.212725,58,-161,8279,56,-33,-26
0.212864,51,-102,8321,19,-103,-1
0.213003,88,-140,8349,50,-71,-51
0.213143,3,-151,8312,44,-46,18
0.213282,54,-118,8271,50,-84,-39
0.213421,1,-158,8274,69,-58,-20
0.213561,-1,-188,8296,-13,-97,-20
0.213699,75,-149,8319,82,-77,-13
0.213839,76,-133,8281,25,-20,-26
0.213978,11,-167,8306,63,-122,-32
0.214117,-31,-111,8335,38,-46,-7
0.214257,-49,-160,8318,56,-77,-39
0.214397,21,-93,8236,44,-71,12
0.214536,19,-151,8280,6,-71,-26
0.214675,-10,-118,8336,100,-71,-32
0.214814,52,-138,8303,38,-90,-26
0.214953,26,-159,8283,25,-39,-26
0.215093,36,-107,8288,69,-71,5
0.215232,23,-154,8306,44,-128,-77
0.215371,24,-164,8335,69,-14,24
0.215512,11,-149,8281,31,-71,-51
0.21565,37,-104,8341,38,-84,-7
0.21579,37,-122,8294,31,-39,-1
0.215929,6,-93,8317,69,-77,-64
0.216068,-26,-111,8267,44,-109,18
0.216207,9,-141,8334,63,-7,-20
0.216347,-14,-122,8337,0,-109,-51
0.216486,-1,-163,8339,63,-77,24
0.216626,-20,-146,8275,19,-65,-13
0.216764,-28,-178,8268,44,-71,-26
0.216904,-20,-202,8307,50,-26,-26
0.217043,-6,-172,8343,31,-97,24
0.217182,12,-106,8352,38,-58,-51
0.217321,16,-130,8278,50,-77,-7
0.217461,56,-135,8295,19,-65,-26
0.2176,5,-136,8340,50,-71,-20
0.217741,16,-151,8308,38,-58,18
0.217879,36,-157,8274,44,-71,-70
0.218018,11,-176,8308,12,-52,18
0.218157,22,-108,8346,88,-84,-45
0.218297,10,-81,8316,-6,-39,-26
0.218436,2,-128,8284,82,-84,-26
0.218576,-41,-100,8338,31,-58,12
0.218715,-3,-116,8326,63,-84,-39
0.218854,-11,-102,8345,31,-77,-26
0.218993,2,-104,8310,31,-65,5
0.219133,-7,-115,8269,31,-77,-26
0.219272,20,-142,8280,69,-103,-20
0.219411,31,-180,8288,25,-14,-20
0.219551,35,-177,8299,56,-90,-1
0.21969,30,-146,8263,25,-71,-58
0.219829,-19,-100,8350,75,-77,-1
0.219969,6,-124,8290,38,-58,-32
0.220108,5,-85,8282,12,-58,-1
0.220247,25,-171,8306,107,-97,-26
0.220389,22,-164,8325,6,-77,-26
0.220526,22,-113,8326,63,-52,-70
0.220665,22,-143,8321,38,-77,24
0.220804,26,-130,8310,25,-46,-1
0.220943,25,-183,8297,50,-77,-64
0.221083,37,-155,8311,56,-58,-13
0.221222,18,-117,8299,50,-77,-26
0.221362,-20,-108,8322,38,-46,-1
0.221501,40,-112,8297,63,-116,-13
0.22164,27,-114,8271,25,-33,-45
0.22178,-16,-146,8289,50,-90,-26
0.22192,28,-103,8302,31,-71,5
0.222058,7,-159,8285,82,-77,-39
0.222198,7,-124,8282,-6,-77,18
0.222337,-6,-125,8278,69,-71,-51
0.222476,-1,-142,8316,19,-71,-7
0.222616,-20,-154,8315,56,-71,-39
0.222755,2,-86,8284,75,-65,-13
0.222894,56,-107,8266,12,-84,-32
0.223033,43,-116,8302,50,-71,-7
0.223173,19,-87,8269,69,-84,-7
0.223312,13,-92,8281,50,-71,-51
0.223451,6,-104,8309,0,-65,-7
0.223591,-14,-172,8293,56,-52,-13
0.223731,40,-62,8326,25,-97,-13
0.223869,82,-95,8286,69,-46,-51
0.224009,33,-127,8281,50,-77,-1
0.224148,20,-121,8254,63,-65,-20
0.224287,12,-122,8281,0,-84,-7
0.224428,9,-102,8295,38,-52,-20
0.224566,-4,-95,8302,82,-116,-58
0.224705,-29,-184,8327,19,-46,-13
0.224844,-6,-148,8266,44,-65,24
0.224983,25,-159,8286,69,-77,-83
0.225123,2,-166,8244,12,-58,5
0.225262,-5,-126,8320,44,-65,-7
0.225401,12,-135,8274,44,-84,-20
0.225541,7,-141,8304,75,-77,-32
0.225681,-18,-162,8363,12,-77,-26
0.22582,17,-101,8340,38,-58,24
0.22596,30,-137,8273,75,-109,-64
0.226098,-16,-156,8276,12,-33,-1
0.226239,-33,-178,8315,50,-77,-32
0.226378,12,-198,8309,38,-52,-26
0.226516,49,-155,8310,31,-84,-1
0.226656,72,-153,8328,44,-77,-32
0.226795,-13,-187,8287,38,-52,12
0.226934,0,-128,8273,69,-128,-64
0.227073,8,-121,8242,12,-33,-20
0.227212,25,-129,8259,50,-84,-13
0.227352,-16,-137,8350,38,-58,12
0.227491,-10,-187,8302,56,-84,-77
0.22763,39,-154,8324,31,-33,24
0.22777,21,-163,8342,94,-141,-58
0.227909,28,-141,8295,-25,-7,18
0.228048,-14,-151,8287,94,-109,-58
0.228188,11,-166,8253,12,-46,-1
0.228327,12,-79,8250,69,-46,-39
0.228466,-3,-170,8293,56,-84,-13
0.228606,28,-144,8322,44,-71,-32
0.228745,10,-101,8317,25,-97,-1
0.228884,19,-153,8318,25,-39,-39
0.229023,52,-133,8352,69,-103,-45
0.229163,23,-130,8324,31,-20,18
0.229302,32,-134,8288,69,-122,-70
0.229441,1,-123,8306,19,-46,5
0.229581,21,-203,8291,38,-77,-1
0.22972,-12,-94,8284,38,-90,-45
0.229859,55,-120,8323,50,-71,-20
0.229999,23,-113,8302,82,-71,-39
0.230138,-12,-146,8317,-6,-58,18
0.230277,14,-130,8276,63,-90,-58
0.230418,-30,-128,8298,63,-71,5
0.230556,-34,-177,8324,12,-58,-7
0.230695,-18,-101,8265,63,-90,-45
0.230834,5,-139,8260,31,-65,-32
0.230974,-18,-96,8294,12,-52,24
0.231113,-15,-105,8307,100,-116,-51
0.231252,1,-152,8305,6,-39,-1
0.231393,31,-67,8304,50,-116,-58
0.231531,-14,-147,8288,63,-26,-1
0.23167,23,-179,8277,38,-103,5
0.23181,16,-152,8305,25,-52,-51
0.231949,3,-136,8304,75,-109,-26
0.232088,38,-86,8249,6,-39,-7
0.232228,16,-134,8328,69,-84,-39
0.232367,-55,-122,8308,56,-77,-26
0.232506,-9,-169,8308,50,-77,-26
0.232646,-4,-121,8282,44,-52,-7
0.232785,19,-94,8320,38,-90,-20
0.232924,17,-154,8282,75,-33,-39
0.233063,49,-135,8322,38,-97,5
0.233203,-2,-80,8251,38,-65,-32
0.233342,-18,-121,8287,56,-84,-13
0.233481,0,-128,8301,50,-46,-58
0.233621,-44,-119,8306,19,-90,12
0.23376,-1,-150,8275,69,-65,-39
0.233899,65,-132,8245,69,-97,-7
0.234039,20,-165,8293,6,-33,-39
0.234178,-7,-147,8277,82,-65,5
0.234317,3,-103,8319,0,-90,-32
0.234457,78,-101,8308,88,-84,-45
0.234596,48,-85,8283,-6,-46,5
0.234735,-5,-127,8309,75,-109,-70
0.234874,0,-141,8315,-6,-33,24
0.235014,-50,-120,8235,88,-103,-45
0.235154,-31,-129,8289,25,-71,-32
0.235292,20,-118,8276,63,-77,-7
0.235432,18,-127,8272,31,-33,-26
0.235571,10,-140,8307,44,-103,-7
0.23571,-14,-154,8329,82,-84,-39
0.23585,38,-84,8265,-6,-71,-32
0.235989,23,-141,8294,75,-33,5
0.236128,56,-125,8318,19,-97,-51
0.236268,13,-107,8337,88,-65,5
0.236407,0,-65,8295,19,-84,-26
0.236546,36,-153,8348,63,-71,-13
0.236685,0,-150,8314,63,-71,-13
0.236825,70,-105,8304,12,-122,-45
0.236964,28,-106,8283,19,-33,24
0.237103,-19,-131,8279,69,-71,-45
0.237243,23,-125,8335,19,-71,-20
0.237381,32,-202,8311,50,-71,-7
0.237521,-35,-140,8277,31,-103,-32
0.237661,24,-140,8288,31,-26,-1
0.2378,16,-179,8328,44,-71,-13
0.237939,10,-120,8334,56,-65,-58
0.238079,-4,-177,8276,44,-97,37
0.238218,-10,-107,8314,50,-65,-64
0.238357,1,-94,8278,75,-84,-7
0.238496,19,-161,8318,-6,-39,-7
0.238636,-26,-125,8314,63,-65,-26
0.238775,25,-114,8278,19,-65,-26
0.238914,68,-113,8297,50,-122,-13
0.239054,27,-38,8350,44,-33,-39
0.239193,35,-103,8371,63,-97,-20
0.239332,36,-172,8295,44,-71,-26
0.239472,12,-90,8286,31,-46,-7
0.239611,7,-141,8282,31,-90,-32
0.23975,60,-160,8299,38,-46,-7
0.23989,12,-157,8306,56,-97,-51
0.240029,16,-78,8286,38,-26,24
0.240168,52,-94,8296,75,-122,-58
0.240307,36,-202,8295,-6,-39,-1
0.240447,15,-101,8303,31,-71,-26
0.240586,36,-154,8320,50,-103,-7
0.240725,61,-133,8302,50,-58,-58
0.240865,45,-155,8340,44,-39,37
0.241004,26,-124,8310,56,-122,-64
0.241143,23,-164,8311,6,-46,-1
0.241283,11,-170,8222,50,-84,-32
0.241422,14,-154,8262,44,-39,-20
0.241561,10,-139,8342,82,-122,-13
0.241701,-1,-142,8331,19,-20,-7
0.24184,39,-114,8275,19,-90,-51
0.241979,53,-66,8274,82,-97,-20
0.242118,44,-126,8274,0,-84,-26
0.242258,11,-90,8309,75,-77,-13
0.242397,32,-125,8335,31,-46,-13
0.242536,34,-122,8299,12,-58,-1
0.242676,55,-103,8288,75,-109,-45
0.242815,32,-156,8324,12,-84,-13
0.242954,-4,-160,8310,25,-33,-7
0.243094,12,-67,8300,88,-97,-51
0.243233,-13,-161,8301,-19,-71,24
0.243372,34,-128,8330,94,-46,-70
0.243512,7,-152,8318,56,-84,24
0.243651,29,-152,8321,12,-33,-58
0.24379,22,-151,8345,56,-122,-26
0.243929,60,-151,8348,0,-39,5
0.244069,-2,-123,8268,94,-65,-58
0.244208,21,-104,8303,25,-116,5
0.244347,62,-174,8336,50,-58,-45
0.244487,3,-157,8304,31,-65,-7
0.244627,-10,-141,8276,50,-77,-39
0.244765,15,-146,8308,19,-52,5
0.244905,25,-139,8320,56,-116,-51
0.245044,9,-68,8317,38,-26,-32
0.245183,-24,-160,8298,69,-122,-7
0.245323,6,-134,8324,25,-33,-20
0.245462,28,-55,8324,31,-84,-7
0.245602,27,-105,8323,63,-116,-45
0.24574,-7,-159,8295,-6,-26,-26
0.24588,-58,-179,8313,82,-109,-32
0.246019,-7,-111,8285,56,-52,-1
0.246158,9,-174,8339,50,-71,-45
0.246298,47,-167,8330,6,-71,12
0.246437,-27,-138,8296,56,-58,-51
0.246576,-10,-137,8205,31,-103,-32
0.246716,21,-108,8293,12,-58,5
0.246855,13,-129,8310,75,-71,-58
0.246994,10,-138,8285,50,-77,24
0.247134,-12,-151,8278,69,-122,-45
0.247273,15,-113,8245,-13,-33,-1
0.247412,33,-157,8259,63,-71,-13
0.247552,18,-158,8324,25,-71,-32
0.247692,-18,-145,8307,69,-46,-20
0.24783,31,-146,8347,19,-84,-13
0.247971,69,-118,8283,69,-109,-58
0.24811,48,-106,8281,56,-46,-20
0.248248,40,-123,8264,19,-58,12
0.248391,69,-96,8291,69,-39,-39
0.248527,17,-79,8320,-13,-103,5
0.248666,55,-109,8330,69,-58,-64
0.248805,-10,-127,8341,25,-97,-20
0.248946,25,-143,8326,38,-7,18
0.249084,46,-120,8330,56,-135,-64
0.249225,19,-108,8323,6,-46,-7
0.249365,31,-120,8260,56,-52,5
0.249502,-11,-141,8305,56,-65,-58
0.249642,78,-122,8331,38,-84,-20
0.24978,-29,-134,8288,38,-39,-7
0.24992,-28,-184,8318,38,-84,-26
0.250059,10,-148,8307,38,-77,-39
0.250198,-34,-134,8299,44,-58,-7
0.250338,21,-98,8259,44,-71,-13
0.250477,29,-105,8255,31,-116,-20
0.250616,29,-90,8232,50,-7,-7
0.250756,49,-145,8285,6,-90,-7
0.250895,25,-130,8300,69,-103,-39
0.251035,57,-112,8293,50,-33,-7
0.251174,2,-149,8287,56,-122,-39
0.251313,-1,-152,8325,0,-20,-7
0.251452,35,-122,8284,69,-97,12
0.251591,24,-143,8268,38,-52,-39
0.251731,3,-142,8351,38,-116,-32
0.25187,43,-142,8328,82,-52,-20
0.252009,-26,-132,8363,0,-46,-1
0.252149,-4,-129,8340,50,-109,-39
0.252288,59,-106,8300,56,-84,-32
0.252427,30,-106,8310,44,-52,-26
0.252566,-43,-119,8323,19,-84,12
0.252706,-11,-114,8314,25,-46,-32
0.252845,40,-150,8283,82,-97,-39
0.252984,23,-148,8309,-19,-77,-32
0.253124,41,-108,8280,107,-77,-20
0.253265,4,-154,8355,-25,-65,-20
0.253402,38,-167,8299,50,-33,5
0.253544,-24,-120,8284,25,-128,-39
0.253681,66,-125,8334,56,-33,-39
0.25382,-41,-109,8318,38,-77,5
0.25396,-8,-108,8303,31,-58,-26
0.2541,22,-117,8325,38,-65,-39
0.254241,-34,-104,8314,44,-65,5
0.254378,-6,-133,8318,38,-71,-26
0.254518,45,-132,8258,44,-52,-26
0.254658,-37,-132,8354,6,-77,5
0.254796,-4,-148,8272,69,-77,-51
0.254935,37,-139,8320,38,-58,18
0.255075,5,-177,8313,19,-97,-64
0.255214,-27,-106,8288,63,-26,24
0.255354,41,-133,8237,44,-103,-39
0.255492,-13,-170,8279,6,-39,-20
0.255631,36,-130,8316,75,-103,-32
0.255771,9,-130,8267,-6,-26,-39
0.255911,3,-85,8320,88,-90,24
0.25605,-25,-132,8323,6,-52,-39
0.256189,-8,-137,8333,50,-77,-13
0.256329,35,-137,8367,19,-58,-13
0.256467,78,-137,8287,69,-71,-45
0.256607,22,-169,8300,12,-65,-26
0.256746,8,-164,8313,63,-84,-1
0.256885,-43,-119,8332,44,-71,-7
0.257025,-8,-117,8293,31,-58,-26
0.257164,13,-151,8319,38,-71,-45
0.257303,25,-112,8279,25,-71,-13
0.257442,66,-114,8293,69,-90,-20
0.257583,61,-86,8277,38,-52,-32
0.257721,65,-73,8236,44,-33,-7
0.25786,30,-61,8313,19,-77,-26
0.258,-19,-179,8300,63,-58,-26
0.258139,-9,-95,8251,-6,-20,-20
0.258278,25,-92,8295,94,-135,-20
0.258419,-6,-111,8278,25,-58,-20
0.258557,-34,-112,8287,31,-84,-7
0.258696,-49,-103,8291,63,-33,-39
0.258836,12,-125,8270,19,-77,24
0.258975,4,-197,8314,69,-71,-58
0.259116,38,-154,8332,38,-58,-20
0.259253,-7,-162,8311,19,-58,-32
0.259393,46,-168,8275,69,-90,-7
0.259532,69,-140,8299,25,-52,-7
0.259671,83,-142,8316,6,-103,-20
0.25981,68,-129,8368,63,-52,-39
0.25995,19,-124,8338,6,-71,-13
0.260089,42,-167,8293,82,-77,-51
0.260228,51,-135,8301,31,-58,5
0.260368,17,-140,8322,25,-97,5
0.260507,-2,-109,8285,75,-97,-58
0.260646,55,-75,8313,0,-52,-7
0.260786,8,-166,8289,50,-65,-45
0.260926,24,-173,8322,56,-90,-1
0.261065,5,-160,8339,19,-46,-13
0.261204,19,-147,8323,82,-84,-45
0.261343,34,-115,8277,-13,-65,5
0.261484,82,-103,8274,107,-90,-39
0.261622,50,-80,8374,19,-46,5
0.261761,24,-136,8334,50,-97,-39
0.2619,48,-157,8300,25,-65,-1
0.26204,42,-116,8300,50,-65,-20
0.262179,32,-173,8388,44,-90,-13
0.26232,72,-175,8338,50,-52,-45
0.262458,68,-175,8287,50,-46,-20
0.262597,-1,-146,8280,19,-109,12
0.262736,46,-189,8314,44,-7,-32
0.262876,58,-154,8344,50,-109,-26
0.263015,68,-156,8312,82,-77,-13
0.263154,11,-110,8327,-6,-33,-7
0.263294,14,-164,8306,50,-103,-26
0.263433,26,-117,8316,50,-65,-51
0.263573,54,-134,8255,69,-84,12
0.263711,-16,-136,8318,50,-58,-20
0.263851,3,-101,8303,50,-84,-64
0.26399,37,-116,8337,44,-65,31
0.264129,0,-163,8395,50,-84,-58
0.264269,25,-163,8346,44,-97,-39
0.264408,16,-198,8294,25,-52,37
0.264551,17,-134,8303,88,-77,-39
0.264686,48,-202,8340,31,-90,-39
0.264826,40,-149,8340,44,-77,-13
0.264965,29,-164,8296,31,-33,5
0.265105,2,-120,8334,38,-90,-32
0.265244,26,-95,8333,31,-65,-45
0.265384,-20,-130,8309,50,-52,5
0.265522,-2,-148,8326,44,-90,-45
0.265662,28,-123,8288,63,-52,-32
0.265801,-3,-110,8247,-6,-65,5
0.265941,-12,-150,8301,94,-71,-51
0.26608,-8,-142,8269,-13,-58,-7
0.266219,3,-159,8307,50,-103,-58
0.266358,-9,-153,8291,44,-39,12
0.266498,56,-123,8381,69,-84,-39
0.266637,60,-145,8318,19,-58,-26
0.266777,-25,-150,8333,38,-97,-7
0.266915,31,-89,8278,31,-52,-32
0.267055,-31,-222,8318,38,-71,-13
0.267194,-13,-119,8312,38,-46,-20
0.267334,-3,-142,8288,56,-90,-20
0.267473,20,-127,8297,50,-52,-45
0.267612,26,-144,8299,19,-71,5
0.267751,79,-108,8351,63,-77,-13
0.267891,41,-98,8287,12,-58,-32
0.26803,35,-165,8326,56,-97,-39
0.268169,39,-167,8274,56,-65,12
0.268309,21,-74,8270,44,-65,-45
0.268448,-13,-106,8273,-6,-52,-13
0.268587,23,-118,8293,75,-58,-13
0.268726,53,-122,8315,56,-122,-26
0.268866,-4,-96,8322,25,-58,-20
0.269006,8,-73,8330,25,-26,-13
0.269144,3,-110,8304,63,-122,-26
0.269286,23,-134,8285,19,-58,-39
0.269423,27,-135,8329,44,-84,-26
0.269565,13,-82,8246,69,-65,-1
0.269701,12,-153,8277,25,-71,-7
0.269841,2,-109,8272,63,-65,-26
0.26998,61,-163,8285,75,-84,-45
0.270119,40,-165,8314,19,-52,12
0.270259,45,-94,8299,44,-58,-32
0.270398,-9,-152,8313,56,-103,12
0.270537,-10,-134,8341,19,-39,-58
0.270678,37,-142,8331,107,-135,-45
0.270817,37,-160,8319,25,-20,12
0.270957,36,-147,8263,38,-71,-20
0.271095,9,-125,8268,44,-65,-32
0.271234,79,-117,8282,69,-84,-7
0.271373,16,-177,8304,25,-65,-39
0.271513,42,-178,8289,50,-65,12
0.271652,40,-186,8297,25,-65,-39
0.271791,20,-152,8355,56,-58,-32
0.27193,7,-154,8296,38,-71,5
0.27207,-15,-135,8312,12,-65,-39
0.27221,25,-137,8316,75,-71,-26
0.272348,50,-131,8277,12,-46,-20
0.272489,46,-120,8322,75,-84,-32
0.272627,2,-101,8295,44,-65,-7
0.272767,54,-104,8260,44,-84,-32
0.272907,-24,-139,8315,25,-7,24
0.273045,0,-142,8362,63,-154,-77
0.273184,18,-115,8312,0,12,24
0.273324,38,-141,8313,69,-90,-26
0.273463,20,-103,8341,63,-90,-58
0.273602,-26,-129,8364,44,-65,12
0.273742,7,-122,8325,6,-46,-51
0.273881,-2,-113,8343,63,-97,5
0.27402,-11,-176,8351,44,-58,-45
0.27416,92,-123,8307,44,-71,-13
0.274299,48,-186,8382,56,-46,-13
0.274438,3,-205,8389,38,-109,-51
0.274579,52,-185,8338,19,-39,-1
0.274717,122,-132,8302,56,-65,-26
0.274856,22,-102,8332,31,-71,-13
0.274995,-30,-127,8349,63,-58,-32
0.275135,-24,-123,8318,44,-71,-26
0.275274,-32,-157,8376,25,-58,-7
0.275413,-11,-176,8344,31,-58,-7
0.275553,-9,-174,8420,82,-71,-51
0.275692,-11,-195,8384,19,-109,43
0.275831,22,-242,8398,75,-39,-89
0.275971,-18,-179,8349,6,-58,12
0.27611,-10,-164,8386,63,-71,-7
0.276249,68,-200,8383,69,-90,-58
0.276389,76,-176,8337,6,-65,-13
0.276528,32,-231,8330,50,-65,-13
0.276667,72,-186,8330,38,-46,-13
0.276806,62,-171,8331,75,-97,-39
0.276946,26,-224,8390,-13,-71,-7
0.277085,17,-174,8338,94,-65,-51
0.277224,23,-193,8358,31,-46,12
0.277364,64,-136,8365,31,-90,-26
0.277503,37,-115,8357,69,-65,-45
0.277642,34,-160,8413,-13,-39,-7
0.277782,5,-158,8378,44,-84,12
0.277921,-8,-128,8430,100,-97,-39
0.27806,-20,-162,8437,31,-46,-39
0.278199,-5,-191,8461,56,-90,-13
0.278339,-30,-172,8471,25,-46,-13
0.278478,32,-163,8414,94,-84,-26
0.278617,-10,-164,8399,12,-84,18
0.278757,47,-164,8427,63,-84,-64
0.278897,42,-198,8407,25,-33,18
0.279035,64,-178,8407,94,-90,-39
0.279175,91,-163,8384,19,-77,-13
0.279314,46,-151,8354,56,-58,-39
0.279454,-50,-173,8391,56,-65,-7
0.279593,77,-168,8393,6,-84,-7
0.279732,36,-187,8378,88,-71,-32
0.279871,16,-166,8382,25,-58,-1
0.28001,-9,-116,8369,38,-65,-13
0.280149,6,-186,8348,50,-77,-32
0.280289,6,-144,8357,69,-58,-13
0.280428,40,-168,8406,38,-71,-13
0.280568,19,-158,8419,75,-103,-45
0.280707,-19,-194,8382,31,-58,-1
0.280848,-19,-144,8410,31,-39,5
0.280986,-4,-164,8389,100,-77,-45
0.281125,-33,-150,8389,44,-71,-26
0.281265,56,-132,8353,56,-58,-1
0.281404,90,-154,8317,25,-71,-1
0.281543,22,-191,8322,63,-20,-32
0.281682,53,-152,8327,56,-128,-20
0.281821,52,-118,8213,50,-52,-13
0.281961,2,-133,8296,50,-52,5
0.2821,1,-99,8349,50,-77,-58
0.282241,61,-96,8317,44,-65,43
0.282379,-4,-84,8285,44,-71,-77
0.282519,38,-115,8278,38,-58,5
0.282657,32,-121,8278,100,-77,-13
0.282798,12,-93,8362,0,-46,-1
0.282936,-45,-101,8324,82,-97,-51
0.283075,4,-108,8291,56,-58,-32
0.283215,-10,-70,8292,44,-58,5
0.283354,14,-72,8295,50,-58,-7
0.283493,-11,-93,8244,75,-122,-77
0.283633,18,-62,8233,6,-26,24
0.283772,35,-71,8206,82,-77,-51
0.283911,-36,-76,8234,50,-33,12
0.28405,-54,-50,8233,50,-122,-39
0.28419,-13,-51,8194,38,-20,37
0.284331,13,-41,8187,63,-84,-83
0.284468,12,-30,8181,38,-33,37
0.284608,-3,-56,8165,88,-116,-58
0.284748,10,-16,8159,50,-84,-7
0.284886,4,-18,8159,19,-65,-13
0.285026,-7,-100,8128,50,-46,-13
0.285165,-35,-25,8145,56,-122,-13
0.285304,-18,-22,8173,25,-1,-20
0.285444,-6,-92,8188,75,-141,5
0.285583,-33,-19,8229,19,-52,-51
0.285722,-50,-26,8171,69,-46,24
0.285861,-18,-78,8190,69,-109,-45
0.286001,-20,-39,8145,50,-71,-26
0.28614,-43,-17,8085,38,-58,-7
0.286279,-6,-91,8095,44,-84,-26
0.286419,-4,-78,8119,50,-26,-20
0.286558,-10,-48,8142,19,-122,-20
0.286697,-44,-55,8152,113,-84,-26
0.286837,-84,-48,8125,-6,-52,-45
0.286976,-60,-50,8067,50,-39,37
0.287115,-18,-86,8115,44,-109,-58
0.287254,-1,2,8144,82,-77,-20
0.287394,2,-44,8150,38,-46,-26
0.287533,-19,-75,8177,25,-84,-1
0.287673,-38,-117,8127,50,-90,-58
0.287812,7,-38,8176,75,-39,5
0.287951,-6,-55,8168,31,-122,-45
0.28809,-43,-76,8158,44,-33,-20
0.28823,-15,-29,8150,-6,-58,5
0.288369,13,-74,8147,69,-90,-51
0.288508,-4,-54,8152,25,-58,-7
0.288648,-18,-62,8188,44,-84,-1
0.288787,-37,-94,8158,44,-97,-70
0.288926,23,-98,8169,31,-71,-1
0.289065,22,-86,8155,31,-65,-26
0.289205,46,-142,8197,19,-90,-26
0.289344,52,-37,8194,69,-84,-7
0.289483,-15,-98,8243,-19,-52,-32
0.289623,20,-165,8277,100,-77,-1
0.289762,-1,-80,8200,19,-71,-45
0.289901,1,-91,8219,38,-109,-13
0.29004,39,-115,8211,50,-84,-45
0.29018,39,-109,8221,50,-58,5
0.290319,20,-111,8308,44,-84,-39
0.290458,46,-158,8253,31,-71,-51
0.290598,53,-128,8263,38,-84,31
0.290738,67,-93,8208,12,-65,-58
0.290877,44,-162,8221,82,-58,-7
0.291017,41,-144,8242,-13,-77,-45
0.291156,-6,-49,8247,19,-58,5
0.291296,58,-119,8248,56,-84,-45
0.291436,74,-129,8272,50,-58,-45
0.291574,21,-135,8295,31,-84,-1
0.291712,43,-125,8301,38,-39,-13
0.291852,31,-142,8318,75,-103,-39
0.291991,23,-129,8319,-25,-46,-20
0.29213,-14,-132,8339,56,-103,-32
0.292271,61,-118,8313,44,-20,-26
0.292409,38,-114,8316,12,-90,-26
0.292548,36,-179,8349,50,-71,-13
0.292688,60,-194,8352,44,-84,-20
0.292827,20,-163,8344,19,-14,-7
0.292969,23,-182,8304,56,-90,-20
0.293105,39,-151,8350,50,-97,-58
0.293245,78,-154,8337,19,-33,5
0.293384,41,-137,8257,25,-97,-20
0.293525,56,-142,8288,100,-84,-70
0.293663,65,-144,8371,25,-58,18
0.293802,51,-148,8304,19,-71,-13
0.293942,59,-170,8333,50,-65,-64
0.294081,-4,-134,8354,-6,-46,37
0.29422,-45,-146,8365,63,-58,-45
0.29436,-36,-193,8376,63,-109,-32
0.294499,-50,-140,8323,31,-71,-13
0.294638,-37,-200,8342,63,-65,-39
0.294778,1,-211,8394,-19,-33,-13
0.294917,39,-177,8404,63,-90,5
0.295056,29,-141,8359,44,-103,-77
0.295195,40,-189,8381,19,-52,12
0.295334,49,-189,8428,38,-97,-26
0.295474,53,-161,8392,63,-58,-13
0.295613,13,-121,8424,19,-58,-20
0.295752,-38,-216,8410,56,-84,-45
0.295892,33,-210,8407,25,-84,-1
0.296031,18,-249,8446,38,-77,-51
0.29617,15,-239,8442,44,-52,-1
0.29631,-5,-163,8463,38,-90,-26
0.296449,-8,-165,8427,44,-58,-1
0.296588,17,-184,8408,50,-71,-45
0.296727,43,-269,8422,12,-77,-13
0.296867,-8,-243,8390,44,-26,-20
0.297006,42,-213,8421,31,-109,-32
0.297146,5,-219,8388,56,-84,-20
0.297285,-11,-238,8418,63,-33,-32
0.297424,81,-211,8408,6,-77,-26
0.297563,11,-168,8421,82,-84,18
0.297703,22,-172,8401,6,-84,-70
0.297842,26,-166,8409,69,-33,18
0.297981,63,-182,8462,25,-77,-51
0.298121,13,-241,8449,75,-84,-1
0.29826,96,-173,8400,12,-71,-7
0.298399,74,-201,8437,75,-90,-39
0.298539,28,-193,8434,25,-26,-13
0.298678,16,-200,8414,44,-109,-26
0.298817,24,-207,8405,38,-65,-51
0.298958,82,-249,8427,31,-46,24
0.299096,60,-223,8398,88,-90,-83
0.299235,13,-132,8355,-13,-65,31
0.299374,66,-149,8418,119,-71,-45
0.299514,83,-209,8430,6,-65,-1
0.299653,39,-172,8403,50,-90,-32
0.299792,46,-223,8410,56,-65,-26
0.299931,-23,-170,8367,25,-39,-1
0.300071,-39,-144,8349,38,-103,-20
0.30021,4,-155,8408,56,-58,-20
0.300349,46,-199,8412,50,-71,-20
0.300489,14,-178,8420,38,-52,-39
0.300628,35,-158,8385,63,-90,-13
0.300768,9,-153,8418,50,-52,-7
0.300907,89,-161,8347,44,-97,-13
0.301047,37,-174,8331,38,-33,-26
0.301185,23,-187,8378,94,-116,-32
0.301324,12,-188,8405,25,-65,-13
0.301464,48,-107,8381,31,-46,18
0.301603,41,-140,8384,50,-46,-45
0.301742,56,-121,8352,69,-97,-45
0.301882,67,-100,8275,31,-52,18
0.302021,40,-178,8343,44,-58,-45
0.302162,-21,-125,8373,75,-52,-32
0.3023,28,-154,8343,31,-90,-1
0.302439,23,-176,8354,19,-39,-32
0.302578,-21,-181,8310,75,-77,-13
0.302719,-32,-144,8327,56,-58,-26
0.302857,12,-203,8264,50,-58,-13
0.302996,25,-126,8274,19,-97,12
0.303135,11,-110,8254,56,-46,-51
0.303275,43,-139,8273,63,-65,-7
0.303414,78,-125,8265,50,-71,-32
0.303554,13,-79,8279,44,-58,-1
0.303695,16,-150,8279,50,-90,-26
0.303832,-14,-62,8289,56,-46,-1
0.303972,-1,-93,8296,38,-65,-26
0.304111,48,-139,8278,63,-58,5
0.304251,1,-49,8204,44,-103,-39
0.30439,19,-36,8253,63,-39,-13
0.304529,52,-109,8269,31,-39,-20
0.30467,49,-135,8224,63,-90,-20
0.304807,22,-137,8241,50,-58,-20
0.304947,10,-57,8243,44,-84,-39
0.305086,0,-78,8229,56,-77,5
0.305225,34,-66,8292,38,-20,5
0.305364,-48,-130,8279,63,-109,-64
0.305504,-54,-100,8266,31,-33,18
0.305643,50,-11,8279,82,-128,-58
0.305783,30,-66,8267,6,-46,12
0.305922,14,-71,8217,88,-58,-45
0.306061,14,-25,8217,0,-84,-7
0.3062,16,-70,8248,75,-65,-13
0.30634,21,-51,8211,31,-65,-13
0.306479,-33,-120,8207,63,-58,-58
0.306618,-17,-84,8214,38,-84,12
0.306758,14,-73,8219,19,-109,-26
0.306897,5,-143,8141,88,-52,-45
0.307036,19,-128,8205,25,-65,5
0.307176,34,-94,8262,69,-97,-26
0.307315,28,-59,8228,6,-52,5
0.307454,61,-42,8218,75,-90,-51
0.307594,-34,-74,8212,44,-71,5
0.307733,10,-39,8174,19,-84,-32
0.307872,-54,-45,8211,56,-46,-13
0.308012,-34,-76,8174,63,-90,-26
0.308151,-9,-51,8220,-25,-71,-20
0.30829,8,-151,8232,94,-77,5
0.308429,16,-121,8208,50,-46,-51
0.308569,28,-110,8171,44,-77,-7
0.308709,52,-83,8242,44,-84,-32
0.308847,6,-40,8261,44,-71,5
0.308986,19,-51,8197,6,-58,-64
0.309126,-32,-25,8212,75,-97,24
0.309265,-51,-96,8231,25,-33,-39
0.309405,-7,-59,8208,38,-90,-26
0.309544,-14,-48,8238,75,-90,-26
0.309683,-50,-70,8277,19,-58,-1
0.309822,-18,-91,8278,31,-109,-32
0.309961,38,-43,8254,25,-26,24
0.310101,-43,-60,8205,56,-103,-83
0.31024,-11,-96,8197,44,-65,18
0.310379,61,-70,8213,19,-58,-32
0.310519,2,-87,8211,63,-77,-39
0.310658,0,-47,8308,75,-77,-1
0.310798,-5,-98,8284,-6,-52,-20
0.310937,42,-104,8240,44,-58,-20
0.311078,0,-137,8197,50,-97,-51
0.311216,-13,-102,8210,44,-65,-7
0.311356,-13,-88,8209,6,-58,-26
0.311494,-3,-62,8234,69,-77,-13
0.311633,5,-83,8246,12,-77,-45
0.311773,-16,-118,8244,44,-39,-7
0.311913,-29,-103,8211,63,-71,-7
0.312051,-15,-149,8216,6,-77,-20
0.312192,-27,-117,8247,50,-77,-1
0.312331,-4,-132,8282,44,-52,-51
0.312469,18,-147,8218,38,-77,-32
0.312608,1,-111,8259,12,-77,-20
0.312748,-10,-163,8278,31,-52,24
0.312887,12,-110,8264,69,-71,-77
0.313026,-14,-99,8229,38,-84,12
0.313166,48,-123,8256,31,-65,-32
0.313305,77,-110,8310,12,-71,-7
0.313445,-16,-87,8324,88,-97,-26
0.313584,-43,-89,8241,50,-46,-20
0.313723,-46,-68,8290,-32,-90,-26
0.313863,-1,-135,8261,82,-52,-7
0.314002,-6,-201,8242,19,-103,-45
0.314141,21,-179,8267,56,-58,24
0.31428,45,-103,8285,44,-65,-77
0.31442,38,-120,8270,44,-84,-13
0.314559,-16,-90,8289,25,-65,-1
0.314698,-29,-119,8365,50,-77,-45
0.314837,-37,-137,8312,50,-71,12
0.314977,11,-196,8309,12,-33,-39
0.315116,2,-162,8336,31,-103,-13
0.315255,21,-137,8287,75,-71,-58
0.315395,2,-131,8350,-13,-71,37
0.315534,44,-180,8385,69,-46,-83
0.315673,18,-172,8342,25,-122,24
0.315813,60,-130,8337,56,-58,-45
0.315952,46,-208,8359,38,-71,-26
0.316091,61,-180,8316,50,-84,-13
0.31623,27,-162,8332,25,-52,-20
0.31637,12,-168,8395,75,-65,-32
0.316509,41,-142,8371,19,-77,-26
0.316649,24,-126,8383,6,-58,24
0.316788,1,-120,8341,69,-97,-58
0.316927,43,-180,8340,31,-77,-13
0.317066,9,-174,8329,25,-77,-45
0.317206,48,-209,8393,63,-71,18
0.317345,11,-168,8320,44,-71,-45
0.317484,52,-144,8302,0,-46,-7
0.317624,62,-195,8377,100,-116,-20
0.317763,1,-142,8395,6,-65,-58
0.317902,37,-120,8339,44,-46,24
0.318042,-2,-134,8356,50,-77,-32
0.318181,33,-182,8346,56,-77,-51
0.31832,8,-162,8323,0,-33,5
0.31846,54,-174,8374,56,-116,-13
0.318599,88,-152,8406,31,-39,-20
0.318738,72,-198,8389,50,-71,-32
0.31888,42,-204,8371,31,-65,-7
0.319017,21,-201,8405,94,-97,-64
0.319156,68,-188,8408,-19,-58,50
0.319295,94,-168,8366,82,-84,-64
0.319435,-17,-129,8398,25,-39,12
0.319574,-45,-94,8378,69,-122,-26
0.319713,23,-133,8334,0,-14,-13
0.319852,12,-157,8385,69,-97,-1
0.319992,58,-198,8430,25,-58,-58
0.320131,37,-192,8414,56,-84,12
0.32027,33,-142,8393,44,-58,-32
0.32041,28,-164,8352,19,-84,-7
0.320549,23,-155,8398,94,-71,-64
0.320688,20,-161,8403,44,-71,18
0.320828,26,-178,8358,44,-90,-51
0.320967,42,-135,8384,44,-52,24
0.321107,-22,-181,8371,56,-77,-64
0.321245,-8,-193,8294,19,-52,12
0.321392,-3,-186,8341,82,-84,-39
0.321524,21,-172,8336,44,-84,-32
0.321664,87,-164,8310,-13,-26,18
0.321805,4,-188,8339,75,-71,-32
0.321942,-9,-217,8392,50,-116,-77
0.322081,20,-113,8391,25,-33,18
0.322221,56,-125,8379,75,-97,-32
0.322362,-1,-185,8344,19,-14,12
0.322499,26,-176,8378,63,-90,-45
0.32264,-9,-178,8332,6,-71,-7
0.322778,74,-141,8322,69,-84,-64
0.322917,36,-208,8365,44,-58,5
0.323057,33,-177,8353,38,-65,-13
0.323196,16,-161,8338,6,-71,-20
0.323335,11,-189,8371,107,-71,-20
0.323475,-25,-197,8354,50,-52,-13
0.323614,10,-129,8316,25,-84,-32
0.323753,23,-200,8354,56,-58,-13
0.323893,84,-142,8312,50,-90,-7
0.324032,54,-144,8333,31,-58,-26
0.324171,48,-133,8374,44,-58,-20
0.324311,-6,-168,8321,82,-97,-51
0.32445,-32,-190,8388,19,-33,24
0.324589,31,-138,8331,50,-103,-58
0.324729,-65,-141,8312,19,-65,-26
0.324868,-2,-117,8285,56,-65,12
0.325007,30,-103,8330,69,-84,-32
0.325146,-17,-175,8306,12,-20,-39
0.325286,23,-152,8321,69,-148,-13
0.325425,42,-155,8369,63,-33,-20
0.325564,20,-115,8282,31,-97,-13
0.325704,32,-86,8291,38,-52,-13
0.325843,44,-107,8256,56,-71,-20
0.325982,8,-104,8259,25,-65,-1
0.326121,4,-122,8288,69,-90,-77
0.326261,-13,-152,8314,6,-14,24
0.3264,2,-98,8293,75,-141,-45
0.326539,25,-95,8318,25,-20,5
0.326679,-3,-162,8325,44,-103,-39
0.326818,75,-182,8262,44,-58,-13
0.326958,14,-143,8260,50,-71,-1
0.327097,66,-126,8298,75,-46,-32
0.327236,20,-137,8257,25,-90,-32
0.327375,-4,-141,8268,63,-77,-13
0.327515,8,-124,8243,19,-58,24
0.327654,0,-102,8235,75,-77,-51
0.327793,23,-110,8224,38,-97,-26
0.327933,21,-121,8259,31,-52,24
0.328072,49,-162,8263,75,-77,-51
0.328211,-63,-92,8307,31,-46,-20
0.32835,22,-96,8251,19,-97,-7
0.32849,7,-115,8270,88,-65,-45
0.328629,1,-39,8235,31,-33,12
0.328768,52,-82,8268,38,-135,-64
0.328908,12,-116,8215,44,6,37
0.329048,-13,-91,8274,31,-116,-39
0.329187,-27,-136,8229,31,-77,-45
0.329326,53,-123,8279,69,-33,-32
0.329465,26,-79,8275,12,-77,-20
0.329604,52,-26,8214,44,-46,18
0.329743,22,-99,8208,69,-109,-77
0.329883,17,-74,8200,12,-14,37
0.330022,-4,-63,8260,50,-116,-26
0.330161,-8,-45,8281,82,-103,-39
0.330301,-19,-67,8248,6,-33,5
0.33044,1,-83,8254,56,-90,-26
0.330579,-1,-86,8253,56,-71,-26
0.330719,11,-86,8241,-6,-52,-1
0.330858,31,-82,8256,88,-90,-45
0.330998,0,-132,8229,0,-65,-1
0.331138,4,-77,8185,82,-77,-51
0.331276,6,-54,8239,19,-71,18
0.331415,-24,-47,8252,44,-65,-39
0.331554,16,-71,8252,31,-52,-13
0.331694,-7,-114,8273,50,-116,-39
0.331833,-6,-120,8252,31,-26,-39
0.331972,-16,-111,8237,63,-97,-7
0.332112,2,-71,8216,50,-71,-20
0.332251,0,-118,8229,6,-33,5
0.33239,1,-179,8249,107,-128,-96
0.33253,4,-101,8242,56,-46,31
0.332669,10,-100,8253,-6,-46,-13
0.332808,40,-74,8276,38,-65,-13
0.332948,30,-90,8274,94,-141,-45
0.333087,62,-71,8240,31,-20,-26
0.333226,-8,-102,8247,44,-58,12
0.333365,-24,-124,8199,75,-122,-70
0.333505,-20,-91,8273,-6,-26,-7
0.333644,9,-82,8252,94,-90,-7
0.333783,-13,-101,8249,-25,-46,-51
0.333923,1,-118,8248,82,-103,5
0.334062,17,-167,8243,38,-65,-26
0.334201,34,-153,8267,44,-65,-39
0.334341,28,-42,8213,31,-65,-7
0.33448,-35,-61,8224,44,-103,-20
0.334619,0,-116,8351,56,-20,-39
0.334759,-26,-104,8265,12,-116,18
0.334898,-13,-112,8266,50,-84,-26
0.335037,-19,-133,8285,63,-65,-45
0.335176,-4,-128,8283,50,-71,-7
0.335316,-11,-130,8245,12,-52,-39
0.335455,86,-109,8276,100,-77,-20
0.335594,62,-142,8292,-13,-71,12
0.335734,33,-74,8304,63,-52,-58
0.335873,50,-87,8274,82,-77,-39
0.336012,94,-100,8266,-6,-77,31
0.336152,14,-134,8282,31,-84,-64
0.336291,23,-121,8298,69,-52,18
0.33643,-38,-115,8298,38,-90,-83
0.33657,-1,-136,8267,6,-26,37
0.336709,36,-69,8243,107,-103,-39
0.336848,-6,-88,8298,-19,-90,-32
0.336987,11,-102,8325,63,-20,5
0.337127,13,-87,8296,50,-65,-32
0.337266,5,-105,8317,31,-97,-13
0.337405,10,-77,8241,63,-90,-32
0.337545,11,-131,8247,12,-26,-13
0.337684,28,-102,8328,69,-103,-32
0.337823,72,-109,8332,44,-84,-20
0.337963,19,-128,8326,25,-84,18
0.338102,11,-105,8304,88,-103,-102
0.338241,-2,-143,8366,6,-14,69
0.338381,4,-170,8349,63,-103,-83
0.33852,10,-180,8315,63,-52,-13
0.338659,-7,-162,8322,12,-71,-1
0.338798,6,-126,8309,38,-58,-20
0.338938,28,-110,8350,25,-77,-20
0.339077,-3,-183,8374,75,-97,-1
0.339216,-56,-162,8308,6,-71,-32
0.339356,-13,-152,8309,31,-46,-26
0.339495,-16,-170,8315,50,-71,-26
0.339634,-14,-151,8366,38,-97,-20
0.339774,31,-171,8332,50,-46,-7
0.339913,41,-166,8318,19,-84,-20
0.340052,78,-173,8312,63,-77,-26
0.340192,78,-189,8342,50,-39,-13
0.340331,48,-143,8343,31,-97,-32
0.34047,36,-179,8348,44,-71,-13
0.340609,-6,-117,8300,31,-65,-20
0.340749,63,-178,8397,63,-77,-26
0.340888,15,-155,8418,25,-52,-13
0.341027,18,-136,8356,56,-77,-26
0.341167,1,-172,8344,44,-109,-45
0.341306,-2,-165,8348,50,-58,-20
0.341445,-44,-130,8357,19,-52,12
0.341585,0,-149,8367,44,-97,-77
0.341724,46,-145,8360,75,-71,24
0.341863,23,-183,8390,-6,-52,-20
0.342003,-6,-191,8379,50,-52,-7
0.342142,32,-207,8345,44,-116,-45
0.342281,-14,-175,8344,56,-46,-13
0.34242,32,-159,8312,6,-84,-64
0.34256,50,-180,8369,44,-65,50
0.342699,25,-142,8332,94,-58,-77
0.342838,26,-156,8383,12,-90,-39
0.342978,57,-175,8332,31,-7,18
0.343117,39,-163,8332,63,-97,-45
0.343256,24,-165,8369,56,-103,-20
0.343396,41,-192,8351,19,-14,-20
0.343535,26,-171,8329,69,-122,-20
0.343674,48,-161,8361,31,-52,-1
0.343814,15,-146,8336,50,-77,-51
0.343953,29,-174,8277,-6,-65,31
0.344092,6,-149,8347,82,-84,-96
0.344231,12,-147,8370,12,-77,37
0.344371,-16,-234,8389,63,-58,-51
0.34451,21,-182,8348,12,-90,-32
0.344649,52,-169,8344,75,-71,5
0.344789,18,-166,8362,19,-39,-51
0.344928,22,-138,8403,44,-84,-7
0.345067,40,-207,8358,82,-90,-13
0.345207,12,-208,8334,6,-46,-39
0.345346,65,-166,8316,44,-84,-7
0.345485,32,-163,8356,56,-26,12
0.345625,32,-142,8370,38,-97,-83
0.345764,18,-141,8308,69,-103,-26
0.345903,1,-156,8329,-6,-20,12
0.346043,-20,-105,8364,94,-84,-51
0.346182,3,-170,8346,19,-58,5
0.346321,17,-152,8312,63,-65,-45
0.34646,-7,-194,8371,44,-97,18
0.3466,18,-179,8301,69,-90,-77
0.346739,19,-193,8329,-6,-58,37
0.346878,24,-180,8348,94,-97,-26
0.347018,34,-123,8322,56,-52,-39
0.347157,32,-152,8310,25,-97,12
0.347296,4,-166,8322,63,-33,-39
0.347436,21,-128,8354,44,-84,12
0.347575,41,-69,8328,19,-71,-32
0.347714,51,-168,8274,82,-52,-32
0.347854,42,-124,8329,25,-90,12
0.347993,94,-143,8320,25,-33,-13
0.348132,54,-193,8286,69,-90,-45
0.348271,19,-104,8247,69,-97,-20
0.348411,60,-127,8261,12,-46,-13
0.34855,9,-156,8340,44,-52,-1
0.348689,-13,-165,8330,63,-77,-77
0.348829,6,-79,8334,19,-58,24
0.348968,8,-127,8234,50,-58,-26
0.349107,-5,-171,8282,69,-84,-45
0.349247,-50,-132,8269,25,-52,-1
0.349389,-8,-126,8267,56,-97,5
0.349525,-42,-65,8292,19,-26,-39
0.349665,-30,-87,8251,56,-90,-7
0.349804,22,-146,8278,56,-26,-39
0.349943,12,-116,8312,56,-97,-13
0.350082,-8,-148,8283,44,-97,-70
0.350222,17,-99,8259,44,-52,37
0.350361,25,-119,8246,50,-58,-20
0.3505,5,-134,8218,56,-122,-58
0.35064,7,-95,8203,19,-7,-1
0.350779,19,-109,8255,50,-90,-39
0.350918,-3,-168,8260,82,-71,-13
0.351058,37,-113,8264,-6,-26,-7
0.351197,48,-93,8265,100,-122,-70
0.351336,6,-110,8280,44,-58,5
0.351476,21,-138,8295,-19,-39,-1
0.351615,69,-128,8271,119,-90,-51
0.351754,-9,-133,8244,6,-39,5
0.351893,18,-85,8297,63,-109,-45
0.352033,5,-134,8217,38,-90,-13
0.352172,61,-67,8241,94,-65,-51
0.352311,10,-109,8233,25,-33,-7
0.352451,11,-133,8271,12,-97,-32
0.35259,-2,-130,8258,44,-52,12
0.352729,-1,-76,8258,75,-65,-64
0.352869,-1,-66,8278,-13,-65,5
0.353008,-38,-69,8266,88,-116,-13
0.353147,28,-51,8261,6,-1,-32
0.353287,-8,-77,8252,63,-116,-20
0.353426,3,-71,8268,25,-65,-26
0.353565,39,-98,8253,50,-52,-26
0.353704,38,-110,8286,31,-90,-26
0.353844,30,-141,8260,25,-65,-13
0.353983,2,-105,8253,75,-90,-32
0.354122,20,-105,8293,31,-20,5
0.354262,34,-91,8211,12,-122,-32
0.354401,46,-137,8272,44,-52,-20
0.35454,23,-109,8262,63,-52,12
0.35468,-18,-123,8268,31,-97,-64
0.354819,-39,-95,8261,88,-77,-26
0.354958,15,-113,8252,0,-33,-1
0.355098,0,-98,8296,82,-116,-26
0.355237,12,-52,8265,0,-33,-7
0.355376,10,-33,8202,50,-103,-51
0.355521,-30,-124,8244,75,-65,24
0.355655,-34,-156,8272,31,-90,-64
0.355794,22,-120,8247,25,-58,-1
0.355935,-7,-146,8254,63,-77,-26
0.356074,-10,-155,8217,38,-71,-20
0.356212,20,-145,8207,31,-84,-32
0.356351,22,-83,8241,31,-65,-39
0.356492,54,-145,8228,38,-84,24
0.35663,34,-136,8263,44,-65,-70
0.35677,-8,-94,8255,44,-52,12
0.356909,-5,-107,8261,31,-97,-45
0.357048,-8,-122,8311,56,-58,-20
0.357187,2,-127,8312,25,-65,-13
0.357327,28,-130,8257,31,-71,-20
0.357466,18,-131,8269,38,-46,-20
0.357606,-18,-52,8298,56,-84,-13
0.357744,30,-152,8261,25,-52,-39
0.357886,34,-121,8270,38,-71,-13
0.358023,36,-77,8325,44,-71,-32
0.358164,-18,-81,8314,44,-46,-32
0.358302,-9,-127,8307,19,-65,24
0.358444,32,-135,8345,31,-71,-51
0.35858,56,-131,8298,38,-97,-26
0.358721,22,-78,8283,69,-58,-20
0.358859,-52,-186,8226,19,-97,-32
0.358998,-40,-136,8220,44,-58,-32
0.359138,14,-148,8338,56,-52,5
0.359277,8,-143,8335,12,-90,-20
0.359416,9,-157,8317,56,-65,-58
0.359555,1,-176,8293,0,-52,12
0.359695,18,-139,8285,100,-116,-77
0.359834,-25,-132,8289,0,-39,37
0.359973,-13,-210,8377,50,-97,-45
0.360114,40,-188,8351,50,-77,-7
0.360252,43,-97,8346,63,-71,-64
0.360391,-1,-142,8384,25,-71,24
0.36053,-2,-114,8359,19,-65,-39
0.36067,42,-152,8355,56,-84,-32
0.360809,59,-142,8307,19,-71,5
0.360948,34,-178,8317,75,-77,-32
0.361088,7,-142,8325,31,-52,-7
0.361227,31,-128,8345,63,-84,-39
0.361366,-10,-133,8385,44,-77,5
0.361506,20,-160,8334,25,-65,-32
0.361645,3,-192,8333,0,-77,-32
0.361784,61,-152,8307,94,-33,-1
0.361925,19,-161,8353,12,-97,-32
0.362063,43,-170,8364,31,-65,-32
0.362202,42,-160,8328,63,-103,-7
0.362341,50,-162,8335,19,-39,-20
0.362482,23,-123,8320,44,-84,-45
0.36262,-35,-118,8328,12,-71,-20
0.362759,-17,-168,8335,38,-65,-20
0.3629,-53,-186,8317,56,-14,5
0.363039,24,-152,8302,56,-109,-26
0.363177,45,-147,8342,31,-65,-51
0.363317,98,-163,8360,25,-52,5
0.363456,14,-158,8341,100,-84,-51
0.363595,20,-133,8344,-13,-58,-1
0.363735,22,-155,8330,56,-58,-26
0.363875,-33,-136,8325,38,-103,-26
0.364015,34,-225,8374,31,-39,-26
0.364153,27,-161,8434,63,-103,-39
0.364294,85,-143,8382,0,-26,18
0.364431,23,-196,8367,88,-77,-39
0.364572,22,-197,8406,44,-116,-39
0.36471,21,-180,8359,38,-46,-13
0.364849,20,-152,8343,56,-46,-26
0.36499,37,-127,8390,25,-52,-13
0.365128,54,-127,8316,44,-71,-45
0.365268,27,-103,8278,31,-90,-7
0.365406,24,-134,8323,82,-58,-39
0.365546,2,-128,8298,38,-52,-1
0.365686,43,-204,8298,25,-97,-39
0.365824,-22,-184,8304,44,-33,-7
0.365964,-10,-157,8295,50,-77,-20
0.366104,-41,-151,8338,44,-97,-58
0.366242,4,-123,8347,31,-52,12
0.366381,25,-122,8356,56,-71,-20
0.366522,10,-133,8272,25,-77,-26
0.36666,-6,-141,8366,44,-52,-39
0.366799,-11,-170,8311,44,-71,-7
0.366939,-8,-132,8396,38,-90,-39
0.367078,-6,-144,8395,50,-39,24
0.367219,-14,-151,8346,56,-90,-39
0.367357,19,-180,8319,44,-26,-32
0.367497,35,-182,8362,12,-90,-13
0.367636,1,-173,8367,50,-71,-20
0.367775,57,-185,8328,38,-58,-7
0.367916,-7,-172,8389,19,-71,-13
0.368053,2,-152,8397,63,-58,-39
0.368194,22,-174,8387,44,-97,-13
0.368332,10,-97,8345,44,-52,-32
0.368472,-16,-68,8337,63,-77,-39
0.368612,-11,-96,8335,19,-46,-1
0.368751,-12,-87,8271,44,-71,-39
0.36889,-58,-116,8346,31,-58,24
0.369029,-28,-179,8291,50,-65,-58
0.369168,-4,-177,8287,44,-84,-20
0.369307,25,-129,8295,50,-65,-20
0.369446,42,-154,8375,0,-84,-13
0.369585,30,-130,8269,94,-58,-45
0.369725,37,-171,8260,50,-71,12
0.369864,11,-130,8324,38,-84,-58
0.370005,30,-87,8330,44,-46,5
0.370143,-4,-131,8333,44,-84,-51
0.370283,38,-112,8293,56,-52,12
0.370422,23,-107,8292,19,-77,-45
0.370561,-26,-83,8289,69,-90,-26
0.3707,31,-137,8348,38,-77,18
0.370839,68,-157,8301,56,-26,-26
0.370979,79,-121,8311,38,-116,-39
0.37112,39,-54,8347,50,-33,-20
0.371257,33,-103,8291,56,-84,-1
0.371397,9,-108,8329,-6,-58,-7
0.371536,-48,-117,8300,94,-84,-58
0.371678,-72,-69,8273,12,-33,-1
0.371814,-66,-143,8205,63,-116,-13
0.371954,-109,-127,8242,25,-33,-32
0.372093,-46,-131,8284,38,-97,-1
0.372234,-65,-114,8217,56,-58,-39
0.372372,2,-120,8192,50,-84,-39
0.372511,-14,-156,8214,50,-58,18
0.37265,21,-76,8291,44,-109,-51
0.37279,13,-115,8236,31,-33,-26
0.372929,50,-70,8255,56,-71,-13
0.373068,20,-91,8206,38,-71,-13
0.373208,42,-107,8198,75,-116,-45
0.373347,54,-91,8207,19,-20,12
0.373486,18,-61,8230,69,-103,-20
0.373626,38,-78,8252,19,-77,-51
0.373765,43,-8,8251,69,-52,12
0.373904,-16,-24,8220,25,-97,-64
0.374045,9,-83,8239,44,-39,24
0.374183,8,-85,8258,56,-84,-45
0.374322,-7,-49,8253,25,-65,-13
0.374461,-8,-74,8212,19,-90,-1
0.374601,-3,-22,8208,82,-52,-39
0.374742,6,-56,8239,-32,-77,-13
0.37488,-76,-70,8191,119,-77,-20
0.375019,-18,-48,8185,6,-77,-39
0.37516,-87,-46,8220,44,-39,-1
0.375298,7,-44,8219,56,-128,-51
0.375436,2,-86,8201,38,-20,18
0.375576,-8,-118,8214,38,-97,-58
0.375715,6,-68,8204,31,-52,-1
0.375855,64,-67,8218,69,-103,-13
0.375994,46,-81,8235,50,-58,-26
0.376133,27,-79,8269,6,-46,-1
0.376272,-4,-53,8233,75,-116,-26
0.376412,-5,-108,8207,38,-46,-45
0.376551,-36,-91,8216,44,-90,-1
0.37669,-5,-82,8186,12,-52,-13
0.37683,31,-102,8178,107,-135,-77
0.376969,-7,-90,8182,6,-39,50
0.377109,8,-117,8268,44,-77,-77
0.377248,27,-65,8263,63,-84,-26
0.377389,9,-118,8253,6,-65,31
0.377526,-26,-147,8213,63,-65,-58
0.377665,-33,-121,8228,50,-103,-32
0.377805,-43,-135,8273,-6,-52,24
0.377944,-27,-147,8261,94,-52,-51
0.378083,-24,-104,8236,12,-116,-13
0.378223,-33,-107,8289,31,-33,-32
0.378362,7,-95,8253,56,-109,-20
0.378501,-8,-86,8269,19,-33,-1
0.378642,18,-116,8243,25,-58,-32
0.37878,42,-118,8257,69,-148,-70
0.378919,23,-147,8275,-6,-26,75
0.379058,60,-109,8305,56,-97,-108
0.379198,2,-64,8283,50,-103,-13
0.379337,28,-98,8292,-13,18,12
0.379477,13,-117,8297,88,-154,-45
0.379616,8,-141,8293,50,-46,-13
0.379755,62,-142,8348,-13,-71,-51
0.379896,0,-81,8291,82,-103,-1
0.380034,47,-94,8294,19,-26,-45
0.380174,13,-107,8296,25,-116,-26
0.380312,38,-125,8291,69,-26,-13
0.380452,-4,-189,8298,19,-135,-13
0.380592,36,-147,8358,25,-58,-45
0.38073,22,-145,8330,44,-26,5
0.38087,50,-77,8287,69,-128,-64
0.381009,29,-117,8369,31,-39,-13
0.38115,21,-172,8357,19,-33,12
0.381287,54,-139,8278,31,-103,-64
0.381429,47,-140,8309,25,-46,-7
0.381566,8,-201,8330,69,-84,-45
0.381707,-25,-156,8332,6,-77,-13
0.381845,16,-222,8323,63,-71,-20
0.381984,53,-180,8351,-6,-39,-7
0.382124,42,-156,8366,63,-97,-32
0.382263,26,-199,8360,6,-84,-58
0.382402,25,-219,8415,25,-20,43
0.382543,2,-155,8360,82,-122,-96
0.382681,3,-161,8416,6,-33,31
0.38282,20,-154,8358,75,-141,-64
0.382959,46,-151,8355,31,-20,-1
0.383099,15,-177,8333,12,-26,-26
0.383239,6,-223,8330,56,-97,-26
0.383377,6,-195,8359,38,-90,-7
0.383516,-24,-172,8377,31,-65,-20
0.383657,27,-179,8399,63,-65,-77
0.383795,76,-179,8366,6,-52,31
0.383935,60,-159,8371,69,-97,-45
0.384074,16,-98,8428,12,-84,-45
0.384213,34,-152,8398,69,-77,-13
0.384352,19,-160,8385,31,-58,12
0.384492,18,-163,8418,44,-90,-64
0.384631,17,-186,8400,12,-46,-1
0.38477,32,-184,8403,50,-71,-20
0.384909,-3,-180,8379,69,-103,-26
0.385049,35,-186,8399,25,-58,-45
0.385188,-2,-174,8399,38,-52,24
0.385328,8,-154,8398,25,-77,-51
0.385467,21,-164,8392,75,-97,-32
0.385606,6,-211,8381,19,-39,18
0.385745,7,-228,8352,38,-97,-45
0.385885,-25,-155,8403,63,-39,-13
0.386024,44,-221,8375,6,-65,-32
0.386164,38,-184,8382,75,-90,5
0.386303,71,-175,8342,19,-65,-45
0.386442,72,-175,8367,50,-52,12
0.386581,62,-211,8323,82,-97,-64
0.386721,39,-203,8362,19,-84,-7
0.38686,15,-219,8383,56,-33,-13
0.386999,37,-176,8354,25,-103,-20
0.387139,1,-182,8427,56,-90,-39
0.387278,-43,-115,8414,31,-52,-7
0.387417,5,-159,8373,25,-58,-32
0.387557,24,-152,8369,63,-71,12
0.387696,17,-164,8401,44,-84,-51
0.387835,39,-133,8379,50,-77,-13
0.387974,20,-175,8349,50,-71,5
0.388115,28,-201,8420,12,-52,-70
0.388253,42,-154,8394,56,-84,-1
0.388393,70,-132,8356,50,-46,12
0.388532,58,-132,8354,63,-103,-51
0.388672,24,-132,8354,31,-52,-7
0.38881,37,-88,8329,50,-71,-32
0.388949,39,-117,8325,44,-90,-13
0.389089,34,-86,8344,31,-33,-26
0.389228,22,-119,8303,44,-97,-13
0.389367,-53,-214,8399,88,-46,-20
0.389508,0,-218,8357,82,-97,-39
0.389646,53,-113,8324,0,-7,-7
0.389786,28,-69,8296,63,-90,-20
0.389926,63,-167,8306,56,-58,-58
0.390065,55,-123,8255,44,-97,31
0.390204,84,-98,8322,25,-52,-39
0.390342,27,-127,8306,38,-58,-26
0.390482,2,-173,8328,75,-103,5
0.390621,11,-126,8322,63,-52,-51
0.390761,18,-91,8293,12,-71,-26
0.3909,29,-112,8284,44,-39,5
0.391039,35,-123,8332,44,-90,-26
0.391178,-3,-114,8327,12,-58,-32
0.391319,-32,-112,8281,100,-77,-26
0.391457,31,-134,8245,-25,-39,5
0.391596,2,-92,8250,107,-97,-32
0.391736,-4,-98,8293,38,-46,-26
0.391875,13,-108,8275,38,-97,5
0.392015,14,-164,8249,63,-46,-45
0.392154,17,-51,8239,19,-97,-7
0.392293,1,-96,8258,56,-84,-32
0.392432,32,-142,8214,82,-46,-26
0.392572,-20,-114,8198,12,-39,12
0.392713,-40,-113,8275,50,-84,-32
0.39285,16,-118,8243,25,-65,-45
0.39299,-8,-80,8290,82,-52,-39
0.393129,-21,-112,8247,19,-77,-1
0.393268,-9,-90,8256,38,-46,5
0.393407,10,-137,8213,88,-103,-32
0.393547,56,-73,8232,38,-84,-51
0.393686,11,-80,8242,0,-52,5
0.393827,8,-132,8183,75,-77,-20
0.393965,-49,-64,8235,6,-52,-26
0.394104,22,-85,8193,50,-103,-13
0.394243,-31,-110,8265,69,-58,-39
0.394384,-17,-125,8181,6,-52,-20
0.394522,50,-109,8185,44,-77,-20
0.394661,36,-85,8228,56,-97,-13
0.394801,0,-25,8243,44,-65,-7
0.39494,37,-72,8217,44,-58,-32
0.395079,-35,-86,8244,63,-90,-39
0.395219,-7,-94,8285,6,-58,18
0.395358,-10,-99,8272,44,-90,-32
0.395497,-3,-19,8242,88,-84,-51
0.395636,-2,-102,8261,6,-39,24
0.395776,5,-120,8218,50,-90,-77
0.395915,61,-93,8217,44,-71,43
0.396054,43,-88,8208,56,-71,-64
0.396194,-8,-130,8233,63,-90,-1
0.396333,25,-106,8186,-6,-52,-1
0.396472,38,-83,8275,75,-77,-64
0.396612,-4,-104,8230,12,-71,-13
0.396751,0,-43,8197,63,-103,-32
0.39689,-30,-108,8212,38,-39,5
0.39703,-44,-72,8245,38,-97,-70
0.397169,-1,-74,8235,38,-52,18
0.397308,-50,-67,8208,6,-97,-39
0.397448,44,-94,8242,69,-65,-13
0.397587,60,-104,8212,38,-71,-39
0.397726,55,-134,8196,0,-52,12
0.397866,46,-65,8282,100,-116,-77
0.398005,22,-67,8241,12,-39,37
0.398144,1,-78,8291,56,-71,-32
0.398284,-16,-100,8270,38,-97,-26
0.398423,31,-84,8254,38,-65,-20
0.398562,-20,-140,8233,25,-33,5
0.398701,-31,-148,8245,38,-103,-45
0.39884,-22,-72,8308,69,-71,-7
0.39898,5,-94,8276,-6,-58,-32
0.399119,-8,-122,8253,75,-71,-13
0.399258,22,-119,8299,-6,-90,-32
0.399397,34,-108,8292,44,-46,5
0.399537,8,-64,8332,63,-77,-45
0.399677,-66,-82,8296,25,-58,-32
0.399817,-15,-135,8265,31,-103,-26
0.399955,16,-112,8289,38,-65,-7
0.400094,-33,-108,8332,63,-58,-45
0.400233,16,-190,8301,19,-71,-7
0.400374,21,-123,8285,56,-77,-32
0.400512,7,-135,8293,12,-52,-32
0.400653,25,-152,8286,63,-65,-20
0.400791,6,-97,8281,44,-84,-32
0.40093,-40,-108,8294,38,-58,12
0.40107,45,-87,8234,44,-103,-51
0.40121,16,-133,8281,0,-58,-13
0.401348,72,-89,8309,25,-65,-1
0.401487,69,-173,8295,56,-71,-32
0.401627,15,-186,8321,25,-77,-39
0.401766,73,-112,8333,38,-65,-20
0.401906,17,-164,8311,63,-90,-32
0.402045,-2,-156,8301,0,-52,5
0.402184,-7,-146,8301,44,-77,-20
0.402323,-37,-99,8307,69,-109,-32
0.402463,-6,-140,8292,-6,-46,-26
0.402602,-39,-173,8344,69,-84,-26
0.402741,-2,-176,8350,25,-58,-20
0.40288,16,-143,8352,38,-71,-1
0.40302,20,-173,8318,38,-71,-58
0.403159,3,-218,8318,44,-71,12
0.403298,37,-163,8333,25,-58,-32
0.403438,28,-155,8310,69,-97,-26
0.403578,7,-132,8357,-6,-71,-1
0.403716,54,-148,8368,75,-58,-26
0.403856,34,-129,8364,12,-77,-13
0.403996,38,-162,8419,82,-90,-39
0.404134,27,-148,8350,50,-46,-45
0.404273,77,-178,8352,6,-97,5
0.404413,-9,-202,8332,19,-46,-26
0.404553,-6,-205,8324,50,-84,-26
0.404692,37,-184,8335,25,-65,-45
0.404831,28,-151,8346,56,-90,-13
0.404971,25,-134,8360,19,-14,-13
0.405109,-14,-149,8378,44,-116,-32
0.405249,4,-206,8385,25,-52,-26
0.405389,-23,-150,8363,69,-52,5
0.405527,65,-206,8323,12,-122,-45
0.405667,39,-154,8344,63,-39,-39
0.405806,-27,-180,8384,38,-90,12
0.405945,32,-161,8360,25,-46,-39
0.406085,27,-154,8372,69,-90,-13
0.406224,60,-153,8328,0,-39,-7
0.406363,-12,-152,8356,113,-116,-20
0.406502,-57,-212,8391,-6,-39,-45
0.406642,51,-162,8360,31,-65,-7
0.406781,10,-162,8378,100,-103,-32
0.406921,-17,-146,8398,19,-52,-13
0.40706,2,-188,8335,38,-71,-32
0.407199,67,-172,8306,38,-90,-7
0.407338,97,-193,8387,31,-77,-13
0.407477,56,-200,8372,63,-39,-20
0.407617,51,-198,8319,38,-135,-58
0.407757,2,-181,8353,50,-39,5
0.407896,14,-190,8393,-19,-20,5
0.408035,36,-170,8401,132,-141,-58
0.408174,-36,-169,8362,6,-46,-32
0.408313,18,-148,8386,44,-90,-1
0.408453,56,-138,8330,44,-33,-26
0.408592,-4,-212,8374,69,-77,-39
0.408731,17,-203,8359,44,-71,-7
0.40887,6,-163,8368,0,-71,-7
0.40901,18,-155,8317,94,-39,-20
0.409149,25,-122,8301,6,-128,-39
0.409288,12,-122,8303,94,-58,-20
0.409428,12,-61,8323,-13,-52,5
0.409567,9,-169,8293,88,-103,-45
0.409706,-37,-118,8324,-25,-20,-13
0.409846,-19,-123,8359,75,-84,-32
0.409986,-24,-144,8403,63,-65,-20
0.410124,2,-103,8342,25,-90,-20
0.410264,13,-170,8298,63,-58,-13
0.410404,-38,-166,8273,50,-58,-26
0.410543,-4,-124,8299,12,-103,-32
0.410682,34,-160,8296,19,-14,24
0.410821,26,-172,8298,94,-122,-64
0.41096,8,-114,8303,0,-52,-1
0.4111,-30,-136,8367,75,-46,-26
0.411241,-18,-100,8341,31,-77,-20
0.411381,10,-151,8266,12,-103,-39
0.411517,29,-88,8263,56,-46,-13
0.411657,-1,-142,8286,12,-65,5
0.411796,15,-124,8314,94,-65,-58
0.411936,27,-161,8296,6,-65,-20
0.412075,31,-167,8310,12,-65,-1
0.412214,39,-134,8280,94,-71,-26
0.412353,-3,-93,8193,25,-65,-39
0.412493,9,-117,8293,19,-65,-1
0.412632,65,-69,8255,56,-103,-51
0.412771,25,-59,8265,69,-52,-20
0.412911,-4,-62,8249,6,-84,18
0.41305,-5,-85,8309,82,-33,-32
0.413189,-14,-84,8283,6,-103,-39
0.413328,-30,-106,8233,82,-71,-39
0.413468,17,-83,8260,25,-65,31
0.413607,-14,-140,8260,25,-65,-32
0.413747,14,-94,8286,69,-103,-32
0.413886,-29,-70,8243,82,-71,-7
0.414025,21,-127,8202,-13,-39,-7
0.414165,-7,-118,8241,113,-90,-39
0.414304,-9,-93,8225,19,-58,-7
0.414443,9,-92,8244,25,-103,-39
0.414582,40,-112,8264,69,-52,5
0.414722,40,-59,8248,19,-90,-39
0.414861,9,-19,8291,69,-84,-1
0.415,-16,-117,8185,25,-65,-70
0.41514,84,-88,8194,6,-58,18
0.415279,19,-113,8244,82,-148,-58
0.415418,15,-112,8230,19,6,12
0.415557,28,-69,8232,44,-103,-13
0.415697,40,-113,8240,38,-58,-39
0.415836,-15,-75,8286,82,-128,-51
0.415976,-65,-118,8233,-13,-14,31
0.416115,-39,-98,8262,75,-103,-51
0.416254,-9,-63,8249,31,-52,-26
0.416393,14,-80,8214,69,-84,-13
0.416533,-2,-43,8197,31,-71,-45
0.416672,-16,-37,8240,38,-46,18
0.416811,3,-67,8174,44,-58,-64
0.416951,6,-104,8225,50,-84,5
0.41709,5,-83,8269,38,-71,-13
0.417229,-2,-53,8237,38,-90,-64
0.417368,-3,-73,8215,44,-77,-7
0.417508,-11,-116,8226,12,-33,-39
0.417648,14,-77,8282,63,-77,18
0.417787,25,-78,8255,44,-97,-64
0.417926,-4,-61,8232,44,-65,-7
0.418065,0,-42,8218,12,-71,-13
0.418204,4,-145,8236,69,-103,-20
0.418345,-3,-128,8272,19,-46,-51
0.418483,6,-54,8313,63,-116,-7
0.418623,17,-98,8234,31,-26,5
0.418761,29,-50,8278,44,-84,-83
0.418901,-4,-54,8282,50,-65,18
0.41904,-15,-91,8258,38,-84,-39
0.419179,-35,-94,8233,50,-90,-32
0.419319,-19,-80,8220,-19,-46,37
0.419458,38,-93,8196,69,-71,-70
0.419597,-14,-69,8242,50,-97,-20
0.419737,1,-99,8221,44,-71,-7
0.419876,-19,-101,8248,12,-39,-7
0.420016,-14,-86,8249,50,-97,-45
0.420154,32,-88,8219,38,-84,12
0.420295,16,-125,8209,19,-33,-20
0.420437,-8,-90,8271,63,-116,-64
0.420572,-7,-140,8259,19,-71,24
0.420712,33,-174,8297,12,-20,-32
0.420851,1,-203,8256,56,-109,-32
0.42099,47,-181,8277,38,-65,-7
0.421132,6,-130,8220,12,-65,-39
0.421269,-33,-106,8248,56,-84,-39
0.421411,15,-132,8273,19,-65,31
0.421548,-31,-156,8265,12,-65,-51
0.421687,16,-129,8289,56,-77,-45
0.421826,-7,-138,8241,25,-46,18
0.421966,-9,-141,8252,31,-84,-58
0.422105,-34,-133,8304,25,-26,12
0.422244,-3,-177,8312,63,-128,-32
0.422384,-5,-112,8284,19,-90,-13
0.422523,1,-159,8284,31,-26,-32
0.422662,45,-144,8352,75,-109,-39
0.422802,4,-158,8317,-13,-65,-1
0.422941,-18,-113,8296,63,-71,-32
0.42308,37,-111,8275,25,-58,-13
0.42322,16,-155,8322,69,-103,-39
0.423359,38,-135,8334,6,-58,-20
0.423498,55,-118,8249,25,-52,-20
0.423638,7,-129,8284,75,-90,-20
0.423777,32,-166,8312,31,-71,-45
0.423916,36,-141,8351,25,-46,-13
0.424055,58,-92,8302,12,-97,12
0.424194,21,-175,8330,63,-84,-45
0.424334,-2,-150,8309,38,-58,-51
0.424473,57,-120,8304,25,-33,18
0.424612,1,-189,8296,69,-97,-77
0.424752,20,-163,8294,38,-103,-7
0.424891,48,-160,8296,31,-65,-26
0.42503,52,-146,8309,25,-58,-1
0.42517,-7,-90,8342,69,-90,-45
0.425309,-1,-161,8306,-19,-65,12
0.425448,22,-182,8333,94,-84,-64
0.425587,25,-148,8337,0,-65,5
0.425727,31,-141,8364,56,-71,-32
0.425866,24,-212,8385,-6,-65,-20
0.426006,17,-204,8337,50,-71,-39
0.426145,59,-205,8381,31,-84,-13
0.426284,-49,-203,8307,44,-77,-39
0.426424,61,-167,8314,6,-33,18
0.426563,12,-169,8397,50,-122,-32
0.426702,17,-196,8393,50,-65,-32
0.426842,42,-208,8399,31,-77,-32
0.426981,71,-140,8370,19,-58,-13
0.42712,15,-130,8338,63,-52,-32
0.427259,23,-136,8325,25,-116,-20
0.427399,3,-211,8354,56,-52,12
0.427538,30,-195,8378,25,-52,-45
0.427678,13,-164,8330,25,-71,-26
0.427817,6,-147,8366,88,-109,-32
0.427956,2,-124,8366,-19,-52,-7
0.428095,-14,-206,8359,56,-65,-13
0.428235,-17,-200,8360,75,-84,-39
0.428374,65,-213,8305,38,-65,-32
0.428513,-61,-204,8362,31,-52,-20
0.428652,28,-117,8345,44,-109,-26
0.428792,12,-153,8400,19,-46,-20
0.428931,46,-185,8363,50,-71,-20
0.42907,4,-153,8344,25,-97,-20
0.429209,-13,-199,8357,88,-77,-51
0.429349,19,-183,8345,38,-39,31
0.429489,33,-159,8365,44,-90,-64
0.429629,48,-177,8380,0,-26,5
0.429767,33,-169,8345,113,-109,-45
0.429906,64,-163,8326,-32,-46,31
0.430047,-1,-132,8371,75,-90,-58
0.430185,34,-210,8362,12,-58,5
0.430324,74,-183,8356,75,-90,-1
0.430463,36,-186,8328,44,-90,-70
0.430604,8,-167,8368,19,-39,37
0.430742,43,-145,8361,38,-58,-58
0.430881,66,-139,8352,12,-71,12
0.431021,5,-215,8396,63,-58,-20
0.43116,9,-158,8318,31,-103,-64
0.431299,26,-119,8316,50,-71,12
0.431439,15,-128,8310,38,-71,-32
0.431578,-27,-131,8301,12,-46,5
0.431717,4,-186,8322,63,-84,-45
0.431856,-42,-166,8312,56,-84,-45
0.431996,32,-126,8339,25,-39,12
0.432135,22,-118,8335,38,-77,-58
0.432274,-3,-109,8330,44,-90,-7
0.432414,9,-190,8405,19,-65,-20
0.432553,21,-151,8332,63,-77,-58
0.432692,32,-94,8358,56,-84,18
0.432832,-10,-123,8364,31,-46,-58
0.432971,24,-131,8263,56,-71,18
0.43311,10,-151,8301,12,-71,-26
0.43325,20,-145,8290,75,-90,-51
0.433389,47,-165,8273,38,-65,5
0.433528,4,-170,8301,50,-46,-39
0.433667,22,-186,8284,38,-71,-1
0.433807,1,-147,8284,56,-77,-39
0.433946,-29,-196,8369,63,-109,-32
0.434085,-5,-167,8321,0,6,5
0.434225,2,-127,8330,56,-141,-51
0.434364,13,-158,8292,25,-33,-13
0.434503,29,-166,8279,63,-84,-32
0.434643,44,-107,8271,-6,-39,-7
0.434782,48,-135,8305,75,-109,-51
0.434921,32,-118,8308,31,-77,24
0.435061,11,-100,8336,19,-77,-58
0.4352,25,-135,8292,56,-33,12
0.435339,2,-137,8300,25,-77,-26
0.435478,-19,-139,8288,50,-77,-45
0.435618,15,-143,8277,31,-103,-1
0.435757,28,-161,8316,44,-58,-26
0.435896,16,-92,8299,50,-71,-45
0.436036,38,-94,8303,82,-71,5
0.436175,2,-151,8293,-13,-52,-20
0.436314,94,-135,8256,63,-90,-45
0.436454,35,-93,8300,-6,-65,5
0.436593,15,-125,8313,100,-65,-58
0.436732,43,-140,8295,12,-65,-20
0.436872,-56,-133,8348,44,-84,-1
0.437011,-15,-119,8298,75,-97,-45
0.43715,10,-127,8287,19,-58,-1
0.437289,38,-146,8277,50,-77,-51
0.437429,-14,-111,8252,31,-52,-13
0.437568,-16,-121,8237,50,-58,-20
0.437707,-20,-139,8247,12,-90,-26
0.437847,-9,-93,8290,94,-71,-13
0.437986,54,-111,8316,12,-65,-20
0.438125,42,-165,8274,75,-90,-45
0.438265,-23,-187,8280,12,-71,5
0.438404,76,-118,8245,69,-52,-20
0.438543,10,-69,8340,12,-90,-32
0.438683,68,-96,8348,69,-52,-1
0.438822,43,-100,8334,31,-77,-39
0.438961,15,-145,8346,44,-58,37
0.4391,21,-151,8286,50,-97,-70
0.43924,31,-99,8303,38,-84,-13
0.439379,92,-171,8344,44,-26,-7
0.439518,14,-164,8269,50,-116,-45
0.439658,7,-70,8313,38,-77,-13
0.439797,13,-130,8274,31,-58,-1
0.439936,-13,-143,8266,12,-52,-39
0.440076,27,-80,8276,69,-97,-20
0.440215,12,-116,8367,31,-65,-32
0.440354,-18,-182,8347,31,-65,-7
0.440494,38,-116,8289,63,-97,-51
0.440633,37,-162,8256,25,-52,12
0.440772,1,-171,8317,50,-84,-51
0.440911,-23,-170,8339,63,-52,-20
0.441051,-2,-193,8292,25,-90,-1
0.44119,68,-210,8277,56,-39,-32
0.441329,46,-179,8390,31,-116,5
0.441469,92,-196,8407,50,-71,-58
0.441608,138,-118,8364,63,-71,-13
0.441747,147,-178,8348,12,-84,-7
0.441887,181,-181,8346,44,-58,-20
0.442026,124,-213,8428,38,-58,-32
0.442165,136,-220,8423,75,-97,-32
0.442305,63,-210,8476,19,-33,-7
0.442444,38,-220,8414,56,-71,-32
0.442583,35,-184,8442,63,-84,-26
0.442722,70,-217,8436,31,-33,-20
0.442862,7,-207,8470,50,-103,-39
0.443001,1,-263,8467,38,-58,12
0.44314,40,-254,8507,38,-84,-32
0.44328,19,-265,8524,25,-26,-51
0.443419,23,-239,8461,69,-97,24
0.443558,-23,-239,8454,63,-58,-58
0.443698,-30,-224,8395,0,-65,-20
0.443837,28,-255,8396,63,-65,18
0.443976,11,-285,8442,63,-135,-58
0.444116,-6,-305,8427,19,-1,-1
0.444255,-1,-315,8472,75,-90,-20
0.444394,-4,-275,8442,31,-58,-20
0.444534,92,-267,8488,38,-65,-13
0.444673,86,-243,8498,56,-65,-45
0.444812,46,-259,8555,50,-77,37
0.444951,58,-213,8516,88,-84,-83
0.445091,35,-229,8443,12,-65,31
0.44523,48,-283,8531,88,-71,-58
0.445369,10,-305,8551,25,-65,-1
0.445509,-15,-243,8520,82,-90,-39
0.445648,33,-266,8466,19,-52,-20
0.445787,-1,-261,8518,75,-58,24
0.445927,-39,-232,8468,50,-90,-32
0.446066,-47,-246,8458,56,-58,-39
0.446205,-45,-254,8458,38,-52,12
0.446345,-40,-272,8463,50,-84,-45
0.446484,-15,-193,8384,82,-39,12
0.446623,9,-196,8391,12,-90,-26
0.446762,-34,-129,8408,119,-65,-32
0.446902,26,-190,8418,-13,-52,5
0.447041,36,-166,8420,75,-71,-58
0.44718,63,-202,8420,94,-122,5
0.44732,54,-153,8417,19,-14,5
0.447459,105,-151,8445,69,-84,-51
0.447598,67,-225,8444,56,-46,37
0.447738,16,-205,8437,75,-109,-77
0.447877,59,-135,8397,12,-26,12
0.448016,122,-135,8354,100,-52,-32
0.448156,95,-162,8451,31,-84,12
0.448295,121,-142,8356,50,-39,-39
0.448434,90,-120,8359,82,-103,-20
0.448573,33,-189,8347,31,-39,31
0.448713,103,-179,8414,56,-84,-70
0.448852,26,-165,8393,50,-52,18
0.448991,-9,-158,8312,69,-97,-39
0.449131,-52,-140,8273,44,-65,12
0.44927,57,-87,8314,63,-77,-58
0.449409,-6,-68,8290,63,-71,-1
0.449549,44,-111,8306,69,-84,-13
0.449688,-8,-163,8307,25,-46,-20
0.449827,-33,-140,8279,100,-84,-13
0.449967,15,-196,8339,31,-26,-58
0.450106,76,-180,8320,75,-90,24
0.450245,44,-141,8261,44,-39,-45
0.450384,1,-125,8288,69,-84,18
0.450524,23,-114,8272,63,-77,-64
0.450663,25,-124,8292,12,-33,24
0.450802,-5,-155,8278,113,-97,-58
0.450942,2,-123,8301,19,-71,-1
0.451081,23,-132,8272,82,-52,-20
0.45122,22,-100,8284,56,-65,-1
0.45136,22,-127,8230,69,-90,-51
0.451499,-25,-109,8311,25,-20,18
0.451638,-50,-127,8278,88,-84,-45
0.451778,-28,-54,8265,69,-71,12
0.451917,12,-17,8287,63,-90,-64
0.452056,3,-54,8247,56,-46,31
0.452195,-3,-52,8255,50,-84,-51
0.452337,15,-78,8222,44,-39,-1
0.452474,-16,-86,8240,75,-90,-39
0.452614,-86,-60,8245,38,-46,-13
0.452754,-26,-77,8202,63,-65,-1
0.452892,-59,-75,8183,25,-52,-32
0.453031,-23,-60,8220,69,-77,-13
0.453175,-12,-76,8208,38,-90,-20
0.45331,18,-13,8173,38,-46,-1
0.453449,53,-44,8187,56,-71,-32
0.45359,1,-65,8184,69,-65,18
0.453729,-4,-64,8192,31,-65,-58
0.453867,-16,-48,8167,44,-90,-20
0.454009,-34,-51,8179,75,-52,-7
0.454146,0,-66,8151,12,-39,12
0.454285,27,-55,8120,50,-65,-32
0.454424,-20,0,8154,50,-97,-26
0.454564,-36,-49,8147,100,-58,-39
0.454703,-59,-53,8121,-6,-58,31
0.454842,17,-92,8155,69,-71,-32
0.454982,-3,-64,8131,50,-65,-20
0.455121,-28,-42,8103,69,-97,-26
0.455262,-44,19,8104,6,-7,12
0.455399,-12,-33,8121,94,-109,-70
0.45554,1,-61,8080,12,-39,31
0.455678,-6,-12,8083,50,-109,-39
0.455818,-25,-28,8100,25,-39,12
0.455957,-4,-13,8067,82,-77,-32
0.456096,6,-14,8100,44,-84,-51
0.456235,1,-71,8116,12,-52,24
0.456375,29,-44,8136,44,-90,-64
0.456514,62,-47,8106,82,-52,12
0.456653,-22,-37,8149,50,-58,-26
0.456792,14,-15,8118,38,-84,-26
0.456932,17,-24,8154,50,-65,-32
0.457071,14,-28,8133,38,-39,-32
0.45721,-29,6,8146,38,-97,5
0.45735,-57,-3,8146,31,-33,-32
0.457489,-47,8,8121,50,-135,-39
0.457628,24,-10,8139,44,-39,-1
0.457768,2,-12,8156,44,-97,-26
0.457907,-83,-18,8076,25,-39,-13
0.458046,0,-30,8137,50,-84,-20
0.458186,-37,-16,8136,50,-71,-32
0.458325,12,-31,8156,69,-65,-64
0.458464,-36,1,8099,0,-20,50
0.458604,-59,-2,8182,75,-154,-70
0.458743,-50,-73,8207,31,-14,-26
0.458884,-19,-18,8147,50,-84,-32
0.459021,-61,-36,8184,25,-77,5
0.459161,-26,-7,8175,44,-65,-51
0.4593,-76,-56,8167,12,-77,-20
0.45944,-29,-53,8141,56,-58,-1
0.459581,-33,-56,8166,12,-65,-51
0.459718,56,-70,8235,56,-116,-13
0.459859,-26,-76,8252,19,-46,-7
0.459997,-52,-83,8187,44,-116,-58
0.460137,-20,-48,8249,38,-58,37
0.460275,-48,-80,8230,31,-77,-70
0.460415,-13,-86,8264,38,-58,-20
0.460562,-28,-55,8250,12,-52,-1
0.460693,-6,-96,8230,82,-103,-7
0.460834,28,-78,8248,31,-65,-83
0.460972,9,-43,8252,0,-77,18
0.461111,78,-105,8271,31,-65,-26
0.461251,60,-105,8277,44,-58,-58
0.461391,15,-127,8281,25,-71,43
0.461529,-11,-77,8308,50,-77,-83
0.46167,13,-80,8285,12,-52,5
0.461808,-27,-128,8245,44,-116,-45
0.461947,82,-137,8252,12,-84,-1
0.462087,66,-111,8301,19,-52,-32
0.462226,-33,-114,8293,44,-84,-7
0.462366,30,-158,8371,63,-84,-51
0.462504,37,-105,8292,25,-65,-20
0.462644,74,-101,8310,31,-58,-13
0.462784,61,-134,8304,25,-90,-20
0.462922,35,-173,8395,50,-39,-32
0.463065,86,-126,8325,25,-103,-32
0.463201,25,-101,8319,50,-65,-7
0.46334,36,-162,8333,12,-52,5
0.46348,27,-189,8305,88,-116,-51
0.463621,-13,-224,8331,0,-20,-26
0.463758,44,-199,8326,19,-65,5
0.463897,76,-212,8343,75,-90,-13
0.464037,70,-186,8364,12,-52,-39
0.464176,39,-130,8357,12,-71,-7
0.464316,34,-177,8407,63,-84,-51
0.464454,-16,-214,8404,12,-65,-7
0.464594,50,-203,8430,82,-84,-26
0.464736,62,-228,8392,6,-33,-1
0.464873,25,-196,8386,31,-116,-58
0.465012,-29,-215,8379,6,-39,5
0.465151,9,-169,8364,82,-97,-39
0.465291,30,-162,8426,12,-77,-13
0.46543,39,-173,8428,12,-39,-7
0.465569,34,-159,8447,50,-65,-26
0.465708,-31,-176,8451,56,-103,-51
0.465848,7,-134,8406,19,-33,-13
0.465987,-10,-202,8410,19,-116,-7
0.466126,-11,-199,8426,75,-39,-39
0.466266,27,-236,8446,-6,-90,-13
0.466406,16,-222,8461,69,-71,-32
0.466545,-22,-226,8446,6,-39,-13
0.466683,-22,-259,8412,75,-103,-32
0.466824,1,-204,8429,12,-58,-26
0.466962,3,-197,8454,44,-84,-20
0.467101,67,-174,8494,12,-52,-20
0.467241,80,-200,8459,69,-65,-13
0.46738,38,-192,8385,12,-52,-26
0.467521,59,-179,8430,44,-77,-13
0.467659,16,-213,8499,75,-97,-32
0.4678,21,-188,8445,44,-65,-26
0.467938,-21,-193,8409,25,-52,-20
0.468077,24,-256,8418,44,-90,-7
0.468216,58,-206,8391,31,-26,-13
0.468355,61,-167,8416,82,-97,-26
0.468495,20,-165,8422,-25,-46,-20
0.468634,55,-232,8426,107,-109,-26
0.468773,66,-184,8447,31,-58,-20
0.468913,83,-217,8500,44,-58,-51
0.469052,38,-208,8413,25,-77,24
0.469191,-10,-219,8397,44,-39,-64
0.469331,-15,-163,8397,44,-77,12
0.46947,37,-198,8351,38,-71,-45
0.469611,30,-199,8405,63,-58,12
0.469748,18,-174,8393,-19,-52,-45
0.469888,40,-181,8418,113,-84,-39
0.470028,23,-192,8391,25,-71,-32
0.470166,-34,-211,8426,25,-33,5
0.470306,10,-197,8385,44,-71,-39
0.470445,11,-209,8397,63,-65,-1
0.470584,32,-153,8412,38,-65,-51
0.470724,51,-172,8416,25,-52,31
0.470863,63,-199,8367,50,-77,-39
0.471002,-1,-218,8398,88,-65,-45
0.471142,7,-213,8449,19,-77,-20
0.471281,-28,-215,8344,31,-58,12
0.47142,15,-195,8348,82,-84,-51
0.47156,-15,-193,8343,19,-39,-13
0.471699,-8,-183,8342,56,-97,-20
0.471838,-42,-185,8380,63,-65,-1
0.471977,22,-164,8370,75,-77,-39
0.472117,41,-170,8336,31,-77,-1
0.472256,27,-222,8378,50,-33,-13
0.472395,69,-169,8437,75,-97,-45
0.472535,48,-197,8395,38,-39,12
0.472674,73,-202,8351,69,-122,-83
0.472813,20,-187,8339,31,-26,31
0.472953,-57,-169,8342,75,-116,-58
0.473092,40,-147,8342,25,-20,24
0.473231,2,-88,8311,69,-116,-64
0.47337,0,-141,8321,69,-33,-7
0.47351,-22,-147,8313,50,-97,5
0.473649,-22,-161,8309,44,-39,-45
0.47379,-42,-148,8284,56,-90,5
0.47393,-50,-204,8378,44,-71,-39
0.474068,-35,-168,8306,63,-58,12
0.474207,6,-167,8303,56,-33,-26
0.474347,37,-167,8263,25,-103,-32
0.474486,2,-175,8279,63,-39,-20
0.474624,7,-183,8305,31,-39,12
0.474763,-38,-142,8315,82,-97,-45
0.474903,11,-174,8296,56,-84,-1
0.475042,-2,-226,8339,6,-52,-39
0.475181,36,-154,8285,107,-71,-20
0.47532,3,-127,8306,25,-65,-13
0.47546,9,-141,8267,69,-58,-26
0.4756,59,-177,8254,56,-109,-13
0.475739,77,-136,8243,38,-52,-26
0.475878,42,-142,8252,75,-77,-39
0.476018,27,-146,8323,19,-26,18
0.476157,-2,-142,8300,88,-84,-39
0.476297,-15,-139,8309,0,-84,-7
0.476435,30,-145,8292,82,-39,-26
0.476574,4,-86,8298,44,-46,-1
0.476714,16,-148,8250,82,-109,-64
0.476854,-10,-92,8261,-19,-33,12
0.476992,-8,-72,8257,75,-26,-7
0.477132,45,-130,8241,50,-90,-45
0.477273,20,-92,8223,88,-90,-1
0.477411,6,-111,8292,-6,-46,5
0.47755,18,-120,8245,69,-58,-64
0.477688,17,-97,8266,44,-52,31
0.477828,11,-214,8282,12,-58,-51
0.477968,6,-143,8297,94,-65,-32
0.478107,57,-110,8255,12,-77,-13
0.478246,-1,-114,8306,50,-39,12
0.478389,71,-93,8310,69,-103,-45
0.478526,35,-64,8297,63,-65,-1
0.478664,11,-115,8299,-6,-33,-26
0.478805,21,-173,8272,88,-77,-13
0.478943,16,-140,8304,38,-58,-20
0.479082,5,-104,8241,19,-52,5
0.479222,31,-108,8275,82,-65,-70
0.479361,36,-125,8300,44,-65,37
0.479501,-47,-206,8247,19,-52,-45
0.47964,-2,-147,8262,82,-71,12
0.479781,-24,-118,8264,12,-58,-51
0.479918,44,-157,8262,31,-84,24
0.480057,34,-137,8281,94,-52,-64
0.480197,17,-106,8205,31,-71,-20
0.480336,-6,-152,8272,44,-65,-13
0.480475,-12,-121,8323,19,-39,-39
0.480615,52,-157,8278,119,-90,-26
0.480754,21,-164,8262,-6,-26,31
0.480893,13,-126,8276,56,-122,-83
0.481033,7,-122,8290,31,-14,12
0.481172,28,-112,8300,56,-77,5
0.481311,-25,-97,8323,50,-84,-83
0.48145,50,-163,8325,63,-46,-7
0.48159,1,-77,8273,50,-58,-20
0.481729,-44,-115,8291,25,-58,-20
0.481868,-44,-185,8342,50,-90,-13
0.482008,-24,-112,8293,19,-39,5
0.482147,-25,-124,8254,94,-122,-77
0.482286,2,-185,8278,38,-52,-1
0.482425,44,-110,8300,44,-52,-20
0.482565,27,-110,8299,50,-71,-20
0.482704,20,-155,8281,63,-58,-7
0.482843,28,-164,8298,63,-103,-51
0.482983,-6,-108,8320,63,-65,18
0.483122,-15,-67,8313,31,-46,-13
0.483261,-38,-132,8334,69,-84,-51
0.483401,-35,-94,8319,25,-77,24
0.48354,24,-174,8253,63,-46,-58
0.483679,22,-138,8259,31,-39,-1
0.48382,18,-104,8248,50,-97,-45
0.483958,33,-142,8278,44,-71,-7
0.484097,-1,-93,8347,44,-14,-7
0.484236,16,-124,8292,38,-84,-51
0.484376,22,-167,8217,63,-71,-1
0.484515,-6,-119,8295,44,-65,-20
0.484654,45,-155,8269,31,-65,-1
0.484794,72,-76,8321,94,-97,-58
0.484933,-1,-100,8302,44,-39,12
0.485072,-44,-62,8232,12,-77,-20
0.485211,13,-91,8270,44,-90,-26
0.485351,1,-131,8308,63,-65,-45
0.48549,-38,-153,8287,63,-52,-1
0.48563,-9,-163,8239,12,-77,-26
0.48577,-1,-99,8273,19,-58,12
0.485909,8,-94,8294,94,-46,-58
0.486047,29,-118,8334,6,-71,18
0.486187,20,-117,8337,63,-71,-26
0.486326,-27,-119,8323,44,-103,-51
0.486469,-4,-83,8312,38,-33,62
0.486605,29,-51,8333,94,-84,-77
0.486744,-1,-78,8284,-25,-14,-7
0.486883,-6,-100,8326,82,-109,-32
0.487023,16,-154,8306,6,-39,-1
0.487163,-3,-107,8310,88,-90,-45
0.487301,-1,-96,8303,25,-46,-26
0.487441,3,-117,8277,38,-71,12
0.48758,18,-56,8250,63,-97,-83
0.487719,27,-113,8257,44,12,75
0.487859,-17,-47,8274,38,-141,-102
0.487998,-9,-108,8268,56,-26,-13
0.488137,-8,-107,8264,-13,-77,31
0.488276,0,-57,8273,94,-52,-64
0.488416,-2,-85,8249,19,-65,-7
0.488555,-34,-107,8195,75,-90,-32
0.488694,-16,-155,8268,50,-71,-7
0.488833,13,-98,8236,38,-14,-32
0.488974,1,-55,8202,50,-109,-13
0.489112,-7,-71,8241,-32,-14,-1
0.489251,-11,-86,8234,113,-135,-64
0.489391,-6,-65,8176,25,-33,31
0.48953,-18,-17,8244,75,-84,-58
0.48967,33,-113,8261,25,-65,-13
0.489809,-1,-100,8237,50,-39,-20
0.489948,-15,-100,8196,25,-71,-26
0.490088,44,-97,8235,31,-84,-39
0.490227,47,-128,8196,31,-65,-13
0.490366,20,-143,8230,88,-71,5
0.490505,18,-126,8218,6,-77,-32
0.490645,35,-108,8224,50,-65,-39
0.490784,54,-111,8218,12,-65,-7
0.490923,9,-107,8250,94,-71,-26
0.491063,16,-40,8179,12,-77,-7
0.491202,-6,-110,8194,38,-58,-39
0.491341,2,-112,8225,75,-97,12
0.491481,53,-107,8232,6,-46,-32
0.49162,-28,-94,8246,75,-116,-51
0.491759,-24,-75,8218,12,-20,18
0.491898,10,-66,8212,69,-122,-51
0.492038,-10,-76,8251,44,-20,-1
0.492177,-42,-101,8228,0,-77,-1
0.492316,-75,-87,8192,100,-90,-58
0.492456,54,-76,8262,0,-52,18
0.492595,1,-106,8223,75,-84,-39
0.492734,-36,-101,8278,25,-77,-26
0.492874,3,-101,8287,69,-65,-13
0.493013,-46,-98,8282,19,-77,-32
0.493152,26,-127,8264,44,-52,5
0.493292,21,-131,8282,12,-46,-1
0.493431,8,-67,8277,107,-122,-70
0.49357,26,-111,8301,-13,-46,24
0.49371,17,-101,8274,94,-116,-64
0.493851,10,-124,8294,-13,-20,37
0.49399,6,-124,8294,75,-103,-83
0.494127,4,-145,8306,0,-33,-1
0.494267,-44,-185,8292,56,-103,-26
0.494406,26,-63,8298,-6,-39,-1
0.494545,25,-65,8322,82,-103,-58
0.494684,60,-71,8293,-6,-46,12
0.494824,-1,-91,8264,75,-90,-51
0.494963,41,-119,8310,19,-84,-13
0.495102,-15,-93,8295,44,-58,12
0.495242,-7,-157,8377,63,-77,-51
0.495381,12,-183,8340,50,-84,12
0.49552,23,-143,8300,-13,-58,-45
0.49566,8,-89,8300,56,-71,-1
0.4958,4,-142,8310,69,-90,-32
0.495939,6,-154,8288,19,-65,-32
0.496078,38,-103,8263,50,-65,-20
0.496218,34,-111,8287,56,-109,-13
0.496357,37,-100,8336,25,-52,-39
0.496496,78,-116,8289,38,-84,-1
0.496635,61,-144,8300,38,-58,-32
0.496774,14,-148,8278,6,-77,-45
0.496914,-6,-153,8301,82,-46,12
0.497054,34,-120,8281,12,-71,-39
0.497192,34,-109,8280,50,-52,-39
0.497331,9,-184,8279,19,-90,-7
0.497472,38,-204,8328,100,-77,-45
0.49761,19,-145,8293,-13,-46,24
0.49775,12,-155,8366,56,-65,-51
0.497889,30,-193,8346,88,-109,-13
0.498028,33,-158,8307,25,-7,-26
0.498167,6,-160,8329,38,-122,-7
0.498307,-24,-136,8274,38,-33,-45
0.498446,21,-176,8292,69,-84,-1
0.498585,-8,-139,8350,44,-84,-26
0.498727,45,-120,8367,0,-52,-1
0.498864,18,-144,8387,56,-90,-58
0.499003,70,-118,8401,38,-65,-7
0.499143,52,-167,8381,38,-46,-7
0.499282,2,-169,8323,38,-52,-45
0.499423,-41,-199,8345,63,-97,-7
0.499561,15,-184,8383,31,-77,-51
0.4997,-19,-176,8373,56,-52,-1
0.49984,2,-191,8358,25,-58,-20
0.499978,47,-174,8313,31,-97,-20
0.500118,32,-185,8328,50,-71,-1
0.500257,59,-146,8316,6,-39,-26
0.500396,-21,-161,8293,88,-122,-39
0.500536,-44,-222,8358,50,-65,-20
0.500675,-24,-195,8422,12,-58,12
0.500814,-34,-134,8398,75,-71,-26
0.500954,-3,-122,8326,31,-58,-20
0.501093,3,-128,8376,50,-116,-39
0.501232,-4,-161,8364,44,-33,-20
0.501371,18,-140,8367,56,-90,-7
0.501511,41,-145,8388,44,-52,-64
0.50165,11,-118,8399,50,-46,12
0.501789,-5,-171,8395,31,-90,-13
0.501929,20,-160,8335,50,-77,-26
0.502068,10,-154,8354,63,-84,-39
0.502207,44,-126,8341,19,-39,-1
0.502347,73,-140,8347,44,-109,-20
0.502486,57,-166,8371,75,-58,-45
0.502625,3,-186,8335,19,-71,-7
0.502765,9,-137,8314,56,-84,-20
0.502904,52,-103,8324,56,-39,-32
0.503043,12,-144,8337,12,-77,18
0.503182,17,-126,8328,50,-77,-39
0.503322,7,-146,8336,69,-90,-20
0.503461,-1,-122,8313,25,-58,-26
0.5036,29,-99,8344,50,-84,12
0.50374,88,-156,8323,38,-46,-70
0.503879,18,-158,8381,31,-84,-1
0.504018,51,-199,8401,82,-58,-20
0.504158,72,-160,8298,19,-77,-58
0.504297,43,-113,8309,12,-58,24
0.504436,-3,-170,8424,88,-65,-77
0.504575,-55,-94,8374,19,-90,12
0.504715,11,-147,8313,69,-39,-1
0.504854,-30,-188,8301,44,-97,-70
0.504993,13,-169,8320,19,-58,24
0.505133,28,-170,8284,88,-84,-70
0.505272,22,-151,8320,19,-58,18
0.505411,54,-155,8294,50,-65,-39
0.505551,2,-178,8318,31,-90,5
0.50569,-22,-113,8305,82,-46,-26
0.50583,-37,-138,8281,19,-97,-39
0.505969,42,-90,8251,82,-97,-7
0.506108,2,-110,8310,19,-26,5
0.506249,-16,-118,8284,75,-71,-51
0.506389,24,-108,8281,12,-97,5
0.506527,27,-142,8262,31,-52,-45
0.506665,-16,-122,8258,50,-39,12
0.506804,25,-58,8238,31,-77,-20
0.506944,66,-102,8270,44,-84,-26
0.507083,52,-138,8286,75,-39,-51
0.507222,-21,-14,8298,-32,-65,24
0.507363,30,-92,8260,75,-65,-20
0.507501,5,-70,8259,31,-71,-32
0.50764,-8,-109,8212,63,-39,-20
0.50778,0,-100,8252,38,-71,-39
0.507919,-56,-106,8257,50,-84,-20
0.508058,-15,-119,8239,12,-20,5
0.508198,27,-95,8207,63,-109,-70
0.508337,19,-101,8235,38,-46,31
0.508478,36,-110,8256,44,-84,-45
0.508616,0,-123,8217,44,-77,-26
0.508755,8,-144,8210,19,-46,-1
0.508894,21,-76,8234,44,-71,-58
0.509035,29,-38,8209,56,-71,-26
0.509173,42,-80,8208,-13,-20,24
0.509312,-26,-150,8249,100,-122,-58
0.509451,-32,-55,8211,12,-46,-13
0.509592,30,-61,8232,69,-90,-32
0.50973,17,-60,8229,0,-39,-13
0.509869,14,-94,8259,38,-77,-13
0.510008,29,-121,8238,56,-52,-7
0.510148,-70,-102,8234,25,-39,-51
0.510287,5,-61,8228,50,-97,-7
0.510426,37,-116,8246,56,-58,-32
0.510566,-21,-87,8220,6,-84,12
0.510705,32,-92,8200,31,-84,-58
0.510844,33,-97,8234,75,-58,-13
0.510984,-3,-62,8198,-19,-58,-1
0.511123,24,-18,8218,69,-71,-45
0.511262,-38,-100,8257,44,-97,-32
0.511402,-28,-27,8262,25,-58,-20
0.511541,-8,-71,8257,63,-39,-7
0.51168,15,-97,8259,-25,-71,18
0.51182,50,-106,8214,75,-84,-39
0.511959,-17,-53,8235,69,-109,-70
0.512098,-41,-66,8294,12,-39,31
0.512238,6,-133,8265,44,-58,-45
0.512377,38,-98,8218,12,-97,-32
0.512516,27,-108,8241,88,-52,-20
0.512656,13,-67,8277,6,-97,-26
0.512795,39,-116,8256,19,-39,-26
0.512934,-27,-96,8204,69,-71,-7
0.513073,-49,-110,8234,19,-90,-20
0.513213,-73,-139,8267,25,-52,-20
0.513352,-59,-103,8334,75,-77,-32
0.513491,17,-130,8268,19,-90,-39
0.513631,3,-144,8259,31,-58,-20
0.51377,9,-103,8281,44,-71,-1
0.513909,-12,-85,8291,25,-65,-51
0.514049,-20,-82,8294,63,-90,-39
